Timestamp,Accel_X,Accel_Y,Accel_Z,Gyro_X,Gyro_Y,Gyro_Z
1737548608.300314,1.878569906965259,9.243587390489179,-9.087578377211752,-169.64160768474147,-454.15434512375396,0.7067407297410568
1737548608.4005072,3.344775259855675,6.660770099577583,-8.097786697790728,-107.31002586570793,-276.6675000597658,-117.81265530459552
1737548608.5007026,5.510718839198539,-9.45838501605312,4.974115889426026,-457.91343704480124,26.8941164942853,58.51138749292477
1737548608.600906,-4.834927489667025,6.9867113256112034,2.444068662465611,-23.942210444331636,-217.72388968579713,-265.68887831430067
1737548608.7011151,-7.980014473160406,-8.537203760523644,-1.1110019336346504,-318.86083584457526,0.6671728798696108,400.4630289006336
1737548608.8013208,3.535358863336791,9.348467894065987,-4.129427483759496,115.17161043850126,-341.46441469122345,-226.34329981040747
1737548608.9014997,-5.39050905689987,-3.6489343872542808,-1.060575604011051,-195.24495703035694,-470.4638173879006,359.1310957222548
1737548609.001885,-4.396688985817317,-7.674084576886893,1.19766739178214,162.7968401953425,375.0810572763244,-63.57032681030563
1737548609.102096,-8.966613221303499,-7.941213103788202,8.818904101413949,-402.7819548565541,-308.5486508116796,246.93941465660214
1737548609.2023668,-1.8355617331912093,-3.8039910700351083,-0.3814797019021139,-329.09589417290783,225.5557157730184,405.16981092635467
1737548609.3026261,2.344877407779018,-8.812004194625512,0.45359230973992304,223.35943977964746,109.38227099359858,268.46172750697485
1737548609.4030776,6.610325702966094,3.0694699347365617,-8.047249307188391,135.75937866735057,-419.12059972236926,275.39828322126016
1737548609.5034578,-4.3821580550169426,-0.025703901922025096,3.111901851179635,-407.9664618489779,251.762470691953,310.9022483698732
1737548609.6036754,-7.124046223096611,1.7930351373963092,3.216973204274943,126.47221895339976,-335.18225528469907,-440.2584464673266
1737548609.7038915,9.826352778165838,-1.2761047599536202,-4.43549581036907,-79.36364617582626,-188.9069845396778,194.17725839757725
1737548609.8043604,3.6739657974943825,0.6096732805043992,-1.8513499466305525,464.0823704503448,350.7923908002507,-437.89275130173024
1737548609.9045944,3.1092280393137415,4.376074057651403,2.2197057987748217,-93.92182623212307,384.4035150910836,187.15668941601598
1737548610.0047767,-4.288867025911678,-4.504947481467658,6.471992293126412,157.6961133032337,-283.2311206975759,74.31060308377414
1737548608.300314,1.878569906965259,9.243587390489179,-9.087578377211752,-169.64160768474147,-454.15434512375396,0.7067407297410568
1737548608.4005072,3.344775259855675,6.660770099577583,-8.097786697790728,-107.31002586570793,-276.6675000597658,-117.81265530459552
1737548608.5007026,5.510718839198539,-9.45838501605312,4.974115889426026,-457.91343704480124,26.8941164942853,58.51138749292477
1737548608.600906,-4.834927489667025,6.9867113256112034,2.444068662465611,-23.942210444331636,-217.72388968579713,-265.68887831430067
1737548608.7011151,-7.980014473160406,-8.537203760523644,-1.1110019336346504,-318.86083584457526,0.6671728798696108,400.4630289006336
1737548608.8013208,3.535358863336791,9.348467894065987,-4.129427483759496,115.17161043850126,-341.46441469122345,-226.34329981040747
1737548608.9014997,-5.39050905689987,-3.6489343872542808,-1.060575604011051,-195.24495703035694,-470.4638173879006,359.1310957222548
1737548609.001885,-4.396688985817317,-7.674084576886893,1.19766739178214,162.7968401953425,375.0810572763244,-63.57032681030563
1737548609.102096,-8.966613221303499,-7.941213103788202,8.818904101413949,-402.7819548565541,-308.5486508116796,246.93941465660214
1737548609.2023668,-1.8355617331912093,-3.8039910700351083,-0.3814797019021139,-329.09589417290783,225.5557157730184,405.16981092635467
1737548609.3026261,2.344877407779018,-8.812004194625512,0.45359230973992304,223.35943977964746,109.38227099359858,268.46172750697485
1737548609.4030776,6.610325702966094,3.0694699347365617,-8.047249307188391,135.75937866735057,-419.12059972236926,275.39828322126016
1737548609.5034578,-4.3821580550169426,-0.025703901922025096,3.111901851179635,-407.9664618489779,251.762470691953,310.9022483698732
1737548609.6036754,-7.124046223096611,1.7930351373963092,3.216973204274943,126.47221895339976,-335.18225528469907,-440.2584464673266
1737548609.7038915,9.826352778165838,-1.2761047599536202,-4.43549581036907,-79.36364617582626,-188.9069845396778,194.17725839757725
1737548609.8043604,3.6739657974943825,0.6096732805043992,-1.8513499466305525,464.0823704503448,350.7923908002507,-437.89275130173024
1737548609.9045944,3.1092280393137415,4.376074057651403,2.2197057987748217,-93.92182623212307,384.4035150910836,187.15668941601598
1737548610.0047767,-4.288867025911678,-4.504947481467658,6.471992293126412,157.6961133032337,-283.2311206975759,74.31060308377414
1737548610.1134222,-9.705442205259898,5.138273920714651,-0.6941076541598683,-122.8329930908364,137.73115397573054,-57.623976781179806
1737548608.300314,1.878569906965259,9.243587390489179,-9.087578377211752,-169.64160768474147,-454.15434512375396,0.7067407297410568
1737548608.4005072,3.344775259855675,6.660770099577583,-8.097786697790728,-107.31002586570793,-276.6675000597658,-117.81265530459552
1737548608.5007026,5.510718839198539,-9.45838501605312,4.974115889426026,-457.91343704480124,26.8941164942853,58.51138749292477
1737548608.600906,-4.834927489667025,6.9867113256112034,2.444068662465611,-23.942210444331636,-217.72388968579713,-265.68887831430067
1737548608.7011151,-7.980014473160406,-8.537203760523644,-1.1110019336346504,-318.86083584457526,0.6671728798696108,400.4630289006336
1737548608.8013208,3.535358863336791,9.348467894065987,-4.129427483759496,115.17161043850126,-341.46441469122345,-226.34329981040747
1737548608.9014997,-5.39050905689987,-3.6489343872542808,-1.060575604011051,-195.24495703035694,-470.4638173879006,359.1310957222548
1737548609.001885,-4.396688985817317,-7.674084576886893,1.19766739178214,162.7968401953425,375.0810572763244,-63.57032681030563
1737548609.102096,-8.966613221303499,-7.941213103788202,8.818904101413949,-402.7819548565541,-308.5486508116796,246.93941465660214
1737548609.2023668,-1.8355617331912093,-3.8039910700351083,-0.3814797019021139,-329.09589417290783,225.5557157730184,405.16981092635467
1737548609.3026261,2.344877407779018,-8.812004194625512,0.45359230973992304,223.35943977964746,109.38227099359858,268.46172750697485
1737548609.4030776,6.610325702966094,3.0694699347365617,-8.047249307188391,135.75937866735057,-419.12059972236926,275.39828322126016
1737548609.5034578,-4.3821580550169426,-0.025703901922025096,3.111901851179635,-407.9664618489779,251.762470691953,310.9022483698732
1737548609.6036754,-7.124046223096611,1.7930351373963092,3.216973204274943,126.47221895339976,-335.18225528469907,-440.2584464673266
1737548609.7038915,9.826352778165838,-1.2761047599536202,-4.43549581036907,-79.36364617582626,-188.9069845396778,194.17725839757725
1737548609.8043604,3.6739657974943825,0.6096732805043992,-1.8513499466305525,464.0823704503448,350.7923908002507,-437.89275130173024
1737548609.9045944,3.1092280393137415,4.376074057651403,2.2197057987748217,-93.92182623212307,384.4035150910836,187.15668941601598
1737548610.0047767,-4.288867025911678,-4.504947481467658,6.471992293126412,157.6961133032337,-283.2311206975759,74.31060308377414
1737548610.1134222,-9.705442205259898,5.138273920714651,-0.6941076541598683,-122.8329930908364,137.73115397573054,-57.623976781179806
1737548610.2140508,4.232055104535652,2.2591238246064282,4.445744200313257,-351.72344922931643,-283.2675292029807,-338.211447452273
1737548608.300314,1.878569906965259,9.243587390489179,-9.087578377211752,-169.64160768474147,-454.15434512375396,0.7067407297410568
1737548608.4005072,3.344775259855675,6.660770099577583,-8.097786697790728,-107.31002586570793,-276.6675000597658,-117.81265530459552
1737548608.5007026,5.510718839198539,-9.45838501605312,4.974115889426026,-457.91343704480124,26.8941164942853,58.51138749292477
1737548608.600906,-4.834927489667025,6.9867113256112034,2.444068662465611,-23.942210444331636,-217.72388968579713,-265.68887831430067
1737548608.7011151,-7.980014473160406,-8.537203760523644,-1.1110019336346504,-318.86083584457526,0.6671728798696108,400.4630289006336
1737548608.8013208,3.535358863336791,9.348467894065987,-4.129427483759496,115.17161043850126,-341.46441469122345,-226.34329981040747
1737548608.9014997,-5.39050905689987,-3.6489343872542808,-1.060575604011051,-195.24495703035694,-470.4638173879006,359.1310957222548
1737548609.001885,-4.396688985817317,-7.674084576886893,1.19766739178214,162.7968401953425,375.0810572763244,-63.57032681030563
1737548609.102096,-8.966613221303499,-7.941213103788202,8.818904101413949,-402.7819548565541,-308.5486508116796,246.93941465660214
1737548609.2023668,-1.8355617331912093,-3.8039910700351083,-0.3814797019021139,-329.09589417290783,225.5557157730184,405.16981092635467
1737548609.3026261,2.344877407779018,-8.812004194625512,0.45359230973992304,223.35943977964746,109.38227099359858,268.46172750697485
1737548609.4030776,6.610325702966094,3.0694699347365617,-8.047249307188391,135.75937866735057,-419.12059972236926,275.39828322126016
1737548609.5034578,-4.3821580550169426,-0.025703901922025096,3.111901851179635,-407.9664618489779,251.762470691953,310.9022483698732
1737548609.6036754,-7.124046223096611,1.7930351373963092,3.216973204274943,126.47221895339976,-335.18225528469907,-440.2584464673266
1737548609.7038915,9.826352778165838,-1.2761047599536202,-4.43549581036907,-79.36364617582626,-188.9069845396778,194.17725839757725
1737548609.8043604,3.6739657974943825,0.6096732805043992,-1.8513499466305525,464.0823704503448,350.7923908002507,-437.89275130173024
1737548609.9045944,3.1092280393137415,4.376074057651403,2.2197057987748217,-93.92182623212307,384.4035150910836,187.15668941601598
1737548610.0047767,-4.288867025911678,-4.504947481467658,6.471992293126412,157.6961133032337,-283.2311206975759,74.31060308377414
1737548610.1134222,-9.705442205259898,5.138273920714651,-0.6941076541598683,-122.8329930908364,137.73115397573054,-57.623976781179806
1737548610.2140508,4.232055104535652,2.2591238246064282,4.445744200313257,-351.72344922931643,-283.2675292029807,-338.211447452273
1737548610.3147228,2.9254683861330317,-7.892686685356988,-3.3169382220620447,303.7264915877713,-413.53877801643023,-277.04467842111046
1737548608.300314,1.878569906965259,9.243587390489179,-9.087578377211752,-169.64160768474147,-454.15434512375396,0.7067407297410568
1737548608.4005072,3.344775259855675,6.660770099577583,-8.097786697790728,-107.31002586570793,-276.6675000597658,-117.81265530459552
1737548608.5007026,5.510718839198539,-9.45838501605312,4.974115889426026,-457.91343704480124,26.8941164942853,58.51138749292477
1737548608.600906,-4.834927489667025,6.9867113256112034,2.444068662465611,-23.942210444331636,-217.72388968579713,-265.68887831430067
1737548608.7011151,-7.980014473160406,-8.537203760523644,-1.1110019336346504,-318.86083584457526,0.6671728798696108,400.4630289006336
1737548608.8013208,3.535358863336791,9.348467894065987,-4.129427483759496,115.17161043850126,-341.46441469122345,-226.34329981040747
1737548608.9014997,-5.39050905689987,-3.6489343872542808,-1.060575604011051,-195.24495703035694,-470.4638173879006,359.1310957222548
1737548609.001885,-4.396688985817317,-7.674084576886893,1.19766739178214,162.7968401953425,375.0810572763244,-63.57032681030563
1737548609.102096,-8.966613221303499,-7.941213103788202,8.818904101413949,-402.7819548565541,-308.5486508116796,246.93941465660214
1737548609.2023668,-1.8355617331912093,-3.8039910700351083,-0.3814797019021139,-329.09589417290783,225.5557157730184,405.16981092635467
1737548609.3026261,2.344877407779018,-8.812004194625512,0.45359230973992304,223.35943977964746,109.38227099359858,268.46172750697485
1737548609.4030776,6.610325702966094,3.0694699347365617,-8.047249307188391,135.75937866735057,-419.12059972236926,275.39828322126016
1737548609.5034578,-4.3821580550169426,-0.025703901922025096,3.111901851179635,-407.9664618489779,251.762470691953,310.9022483698732
1737548609.6036754,-7.124046223096611,1.7930351373963092,3.216973204274943,126.47221895339976,-335.18225528469907,-440.2584464673266
1737548609.7038915,9.826352778165838,-1.2761047599536202,-4.43549581036907,-79.36364617582626,-188.9069845396778,194.17725839757725
1737548609.8043604,3.6739657974943825,0.6096732805043992,-1.8513499466305525,464.0823704503448,350.7923908002507,-437.89275130173024
1737548609.9045944,3.1092280393137415,4.376074057651403,2.2197057987748217,-93.92182623212307,384.4035150910836,187.15668941601598
1737548610.0047767,-4.288867025911678,-4.504947481467658,6.471992293126412,157.6961133032337,-283.2311206975759,74.31060308377414
1737548610.1134222,-9.705442205259898,5.138273920714651,-0.6941076541598683,-122.8329930908364,137.73115397573054,-57.623976781179806
1737548610.2140508,4.232055104535652,2.2591238246064282,4.445744200313257,-351.72344922931643,-283.2675292029807,-338.211447452273
1737548610.3147228,2.9254683861330317,-7.892686685356988,-3.3169382220620447,303.7264915877713,-413.53877801643023,-277.04467842111046
1737548610.415908,-3.33299268244867,-1.6815109208388606,8.351352514027838,-387.95010457075284,-425.29337189358483,-55.26290778977847
1737548608.300314,1.878569906965259,9.243587390489179,-9.087578377211752,-169.64160768474147,-454.15434512375396,0.7067407297410568
1737548608.4005072,3.344775259855675,6.660770099577583,-8.097786697790728,-107.31002586570793,-276.6675000597658,-117.81265530459552
1737548608.5007026,5.510718839198539,-9.45838501605312,4.974115889426026,-457.91343704480124,26.8941164942853,58.51138749292477
1737548608.600906,-4.834927489667025,6.9867113256112034,2.444068662465611,-23.942210444331636,-217.72388968579713,-265.68887831430067
1737548608.7011151,-7.980014473160406,-8.537203760523644,-1.1110019336346504,-318.86083584457526,0.6671728798696108,400.4630289006336
1737548608.8013208,3.535358863336791,9.348467894065987,-4.129427483759496,115.17161043850126,-341.46441469122345,-226.34329981040747
1737548608.9014997,-5.39050905689987,-3.6489343872542808,-1.060575604011051,-195.24495703035694,-470.4638173879006,359.1310957222548
1737548609.001885,-4.396688985817317,-7.674084576886893,1.19766739178214,162.7968401953425,375.0810572763244,-63.57032681030563
1737548609.102096,-8.966613221303499,-7.941213103788202,8.818904101413949,-402.7819548565541,-308.5486508116796,246.93941465660214
1737548609.2023668,-1.8355617331912093,-3.8039910700351083,-0.3814797019021139,-329.09589417290783,225.5557157730184,405.16981092635467
1737548609.3026261,2.344877407779018,-8.812004194625512,0.45359230973992304,223.35943977964746,109.38227099359858,268.46172750697485
1737548609.4030776,6.610325702966094,3.0694699347365617,-8.047249307188391,135.75937866735057,-419.12059972236926,275.39828322126016
1737548609.5034578,-4.3821580550169426,-0.025703901922025096,3.111901851179635,-407.9664618489779,251.762470691953,310.9022483698732
1737548609.6036754,-7.124046223096611,1.7930351373963092,3.216973204274943,126.47221895339976,-335.18225528469907,-440.2584464673266
1737548609.7038915,9.826352778165838,-1.2761047599536202,-4.43549581036907,-79.36364617582626,-188.9069845396778,194.17725839757725
1737548609.8043604,3.6739657974943825,0.6096732805043992,-1.8513499466305525,464.0823704503448,350.7923908002507,-437.89275130173024
1737548609.9045944,3.1092280393137415,4.376074057651403,2.2197057987748217,-93.92182623212307,384.4035150910836,187.15668941601598
1737548610.0047767,-4.288867025911678,-4.504947481467658,6.471992293126412,157.6961133032337,-283.2311206975759,74.31060308377414
1737548610.1134222,-9.705442205259898,5.138273920714651,-0.6941076541598683,-122.8329930908364,137.73115397573054,-57.623976781179806
1737548610.2140508,4.232055104535652,2.2591238246064282,4.445744200313257,-351.72344922931643,-283.2675292029807,-338.211447452273
1737548610.3147228,2.9254683861330317,-7.892686685356988,-3.3169382220620447,303.7264915877713,-413.53877801643023,-277.04467842111046
1737548610.415908,-3.33299268244867,-1.6815109208388606,8.351352514027838,-387.95010457075284,-425.29337189358483,-55.26290778977847
1737548610.5169806,-7.273235283792556,4.964929085072683,0.979358251469387,381.68152095218034,294.10050950797745,197.723825947073
1737548608.300314,1.878569906965259,9.243587390489179,-9.087578377211752,-169.64160768474147,-454.15434512375396,0.7067407297410568
1737548608.4005072,3.344775259855675,6.660770099577583,-8.097786697790728,-107.31002586570793,-276.6675000597658,-117.81265530459552
1737548608.5007026,5.510718839198539,-9.45838501605312,4.974115889426026,-457.91343704480124,26.8941164942853,58.51138749292477
1737548608.600906,-4.834927489667025,6.9867113256112034,2.444068662465611,-23.942210444331636,-217.72388968579713,-265.68887831430067
1737548608.7011151,-7.980014473160406,-8.537203760523644,-1.1110019336346504,-318.86083584457526,0.6671728798696108,400.4630289006336
1737548608.8013208,3.535358863336791,9.348467894065987,-4.129427483759496,115.17161043850126,-341.46441469122345,-226.34329981040747
1737548608.9014997,-5.39050905689987,-3.6489343872542808,-1.060575604011051,-195.24495703035694,-470.4638173879006,359.1310957222548
1737548609.001885,-4.396688985817317,-7.674084576886893,1.19766739178214,162.7968401953425,375.0810572763244,-63.57032681030563
1737548609.102096,-8.966613221303499,-7.941213103788202,8.818904101413949,-402.7819548565541,-308.5486508116796,246.93941465660214
1737548609.2023668,-1.8355617331912093,-3.8039910700351083,-0.3814797019021139,-329.09589417290783,225.5557157730184,405.16981092635467
1737548609.3026261,2.344877407779018,-8.812004194625512,0.45359230973992304,223.35943977964746,109.38227099359858,268.46172750697485
1737548609.4030776,6.610325702966094,3.0694699347365617,-8.047249307188391,135.75937866735057,-419.12059972236926,275.39828322126016
1737548609.5034578,-4.3821580550169426,-0.025703901922025096,3.111901851179635,-407.9664618489779,251.762470691953,310.9022483698732
1737548609.6036754,-7.124046223096611,1.7930351373963092,3.216973204274943,126.47221895339976,-335.18225528469907,-440.2584464673266
1737548609.7038915,9.826352778165838,-1.2761047599536202,-4.43549581036907,-79.36364617582626,-188.9069845396778,194.17725839757725
1737548609.8043604,3.6739657974943825,0.6096732805043992,-1.8513499466305525,464.0823704503448,350.7923908002507,-437.89275130173024
1737548609.9045944,3.1092280393137415,4.376074057651403,2.2197057987748217,-93.92182623212307,384.4035150910836,187.15668941601598
1737548610.0047767,-4.288867025911678,-4.504947481467658,6.471992293126412,157.6961133032337,-283.2311206975759,74.31060308377414
1737548610.1134222,-9.705442205259898,5.138273920714651,-0.6941076541598683,-122.8329930908364,137.73115397573054,-57.623976781179806
1737548610.2140508,4.232055104535652,2.2591238246064282,4.445744200313257,-351.72344922931643,-283.2675292029807,-338.211447452273
1737548610.3147228,2.9254683861330317,-7.892686685356988,-3.3169382220620447,303.7264915877713,-413.53877801643023,-277.04467842111046
1737548610.415908,-3.33299268244867,-1.6815109208388606,8.351352514027838,-387.95010457075284,-425.29337189358483,-55.26290778977847
1737548610.5169806,-7.273235283792556,4.964929085072683,0.979358251469387,381.68152095218034,294.10050950797745,197.723825947073
1737548610.6181297,8.897933739180232,1.9504863261317311,-8.055085924123963,112.05212800263462,-152.87267779003065,-44.47850921842013
1737548608.300314,1.878569906965259,9.243587390489179,-9.087578377211752,-169.64160768474147,-454.15434512375396,0.7067407297410568
1737548608.4005072,3.344775259855675,6.660770099577583,-8.097786697790728,-107.31002586570793,-276.6675000597658,-117.81265530459552
1737548608.5007026,5.510718839198539,-9.45838501605312,4.974115889426026,-457.91343704480124,26.8941164942853,58.51138749292477
1737548608.600906,-4.834927489667025,6.9867113256112034,2.444068662465611,-23.942210444331636,-217.72388968579713,-265.68887831430067
1737548608.7011151,-7.980014473160406,-8.537203760523644,-1.1110019336346504,-318.86083584457526,0.6671728798696108,400.4630289006336
1737548608.8013208,3.535358863336791,9.348467894065987,-4.129427483759496,115.17161043850126,-341.46441469122345,-226.34329981040747
1737548608.9014997,-5.39050905689987,-3.6489343872542808,-1.060575604011051,-195.24495703035694,-470.4638173879006,359.1310957222548
1737548609.001885,-4.396688985817317,-7.674084576886893,1.19766739178214,162.7968401953425,375.0810572763244,-63.57032681030563
1737548609.102096,-8.966613221303499,-7.941213103788202,8.818904101413949,-402.7819548565541,-308.5486508116796,246.93941465660214
1737548609.2023668,-1.8355617331912093,-3.8039910700351083,-0.3814797019021139,-329.09589417290783,225.5557157730184,405.16981092635467
1737548609.3026261,2.344877407779018,-8.812004194625512,0.45359230973992304,223.35943977964746,109.38227099359858,268.46172750697485
1737548609.4030776,6.610325702966094,3.0694699347365617,-8.047249307188391,135.75937866735057,-419.12059972236926,275.39828322126016
1737548609.5034578,-4.3821580550169426,-0.025703901922025096,3.111901851179635,-407.9664618489779,251.762470691953,310.9022483698732
1737548609.6036754,-7.124046223096611,1.7930351373963092,3.216973204274943,126.47221895339976,-335.18225528469907,-440.2584464673266
1737548609.7038915,9.826352778165838,-1.2761047599536202,-4.43549581036907,-79.36364617582626,-188.9069845396778,194.17725839757725
1737548609.8043604,3.6739657974943825,0.6096732805043992,-1.8513499466305525,464.0823704503448,350.7923908002507,-437.89275130173024
1737548609.9045944,3.1092280393137415,4.376074057651403,2.2197057987748217,-93.92182623212307,384.4035150910836,187.15668941601598
1737548610.0047767,-4.288867025911678,-4.504947481467658,6.471992293126412,157.6961133032337,-283.2311206975759,74.31060308377414
1737548610.1134222,-9.705442205259898,5.138273920714651,-0.6941076541598683,-122.8329930908364,137.73115397573054,-57.623976781179806
1737548610.2140508,4.232055104535652,2.2591238246064282,4.445744200313257,-351.72344922931643,-283.2675292029807,-338.211447452273
1737548610.3147228,2.9254683861330317,-7.892686685356988,-3.3169382220620447,303.7264915877713,-413.53877801643023,-277.04467842111046
1737548610.415908,-3.33299268244867,-1.6815109208388606,8.351352514027838,-387.95010457075284,-425.29337189358483,-55.26290778977847
1737548610.5169806,-7.273235283792556,4.964929085072683,0.979358251469387,381.68152095218034,294.10050950797745,197.723825947073
1737548610.6181297,8.897933739180232,1.9504863261317311,-8.055085924123963,112.05212800263462,-152.87267779003065,-44.47850921842013
1737548610.7189558,4.312762375788603,4.490753132731166,-8.69027325633894,-237.01484114067307,75.53560891527479,255.07204737968732
1737548608.300314,1.878569906965259,9.243587390489179,-9.087578377211752,-169.64160768474147,-454.15434512375396,0.7067407297410568
1737548608.4005072,3.344775259855675,6.660770099577583,-8.097786697790728,-107.31002586570793,-276.6675000597658,-117.81265530459552
1737548608.5007026,5.510718839198539,-9.45838501605312,4.974115889426026,-457.91343704480124,26.8941164942853,58.51138749292477
1737548608.600906,-4.834927489667025,6.9867113256112034,2.444068662465611,-23.942210444331636,-217.72388968579713,-265.68887831430067
1737548608.7011151,-7.980014473160406,-8.537203760523644,-1.1110019336346504,-318.86083584457526,0.6671728798696108,400.4630289006336
1737548608.8013208,3.535358863336791,9.348467894065987,-4.129427483759496,115.17161043850126,-341.46441469122345,-226.34329981040747
1737548608.9014997,-5.39050905689987,-3.6489343872542808,-1.060575604011051,-195.24495703035694,-470.4638173879006,359.1310957222548
1737548609.001885,-4.396688985817317,-7.674084576886893,1.19766739178214,162.7968401953425,375.0810572763244,-63.57032681030563
1737548609.102096,-8.966613221303499,-7.941213103788202,8.818904101413949,-402.7819548565541,-308.5486508116796,246.93941465660214
1737548609.2023668,-1.8355617331912093,-3.8039910700351083,-0.3814797019021139,-329.09589417290783,225.5557157730184,405.16981092635467
1737548609.3026261,2.344877407779018,-8.812004194625512,0.45359230973992304,223.35943977964746,109.38227099359858,268.46172750697485
1737548609.4030776,6.610325702966094,3.0694699347365617,-8.047249307188391,135.75937866735057,-419.12059972236926,275.39828322126016
1737548609.5034578,-4.3821580550169426,-0.025703901922025096,3.111901851179635,-407.9664618489779,251.762470691953,310.9022483698732
1737548609.6036754,-7.124046223096611,1.7930351373963092,3.216973204274943,126.47221895339976,-335.18225528469907,-440.2584464673266
1737548609.7038915,9.826352778165838,-1.2761047599536202,-4.43549581036907,-79.36364617582626,-188.9069845396778,194.17725839757725
1737548609.8043604,3.6739657974943825,0.6096732805043992,-1.8513499466305525,464.0823704503448,350.7923908002507,-437.89275130173024
1737548609.9045944,3.1092280393137415,4.376074057651403,2.2197057987748217,-93.92182623212307,384.4035150910836,187.15668941601598
1737548610.0047767,-4.288867025911678,-4.504947481467658,6.471992293126412,157.6961133032337,-283.2311206975759,74.31060308377414
1737548610.1134222,-9.705442205259898,5.138273920714651,-0.6941076541598683,-122.8329930908364,137.73115397573054,-57.623976781179806
1737548610.2140508,4.232055104535652,2.2591238246064282,4.445744200313257,-351.72344922931643,-283.2675292029807,-338.211447452273
1737548610.3147228,2.9254683861330317,-7.892686685356988,-3.3169382220620447,303.7264915877713,-413.53877801643023,-277.04467842111046
1737548610.415908,-3.33299268244867,-1.6815109208388606,8.351352514027838,-387.95010457075284,-425.29337189358483,-55.26290778977847
1737548610.5169806,-7.273235283792556,4.964929085072683,0.979358251469387,381.68152095218034,294.10050950797745,197.723825947073
1737548610.6181297,8.897933739180232,1.9504863261317311,-8.055085924123963,112.05212800263462,-152.87267779003065,-44.47850921842013
1737548610.7189558,4.312762375788603,4.490753132731166,-8.69027325633894,-237.01484114067307,75.53560891527479,255.07204737968732
1737548610.820101,9.046112504754216,-3.6946806099818446,8.79678869074208,47.796352158979516,390.6373344399558,-341.0021640112698
1737548608.300314,1.878569906965259,9.243587390489179,-9.087578377211752,-169.64160768474147,-454.15434512375396,0.7067407297410568
1737548608.4005072,3.344775259855675,6.660770099577583,-8.097786697790728,-107.31002586570793,-276.6675000597658,-117.81265530459552
1737548608.5007026,5.510718839198539,-9.45838501605312,4.974115889426026,-457.91343704480124,26.8941164942853,58.51138749292477
1737548608.600906,-4.834927489667025,6.9867113256112034,2.444068662465611,-23.942210444331636,-217.72388968579713,-265.68887831430067
1737548608.7011151,-7.980014473160406,-8.537203760523644,-1.1110019336346504,-318.86083584457526,0.6671728798696108,400.4630289006336
1737548608.8013208,3.535358863336791,9.348467894065987,-4.129427483759496,115.17161043850126,-341.46441469122345,-226.34329981040747
1737548608.9014997,-5.39050905689987,-3.6489343872542808,-1.060575604011051,-195.24495703035694,-470.4638173879006,359.1310957222548
1737548609.001885,-4.396688985817317,-7.674084576886893,1.19766739178214,162.7968401953425,375.0810572763244,-63.57032681030563
1737548609.102096,-8.966613221303499,-7.941213103788202,8.818904101413949,-402.7819548565541,-308.5486508116796,246.93941465660214
1737548609.2023668,-1.8355617331912093,-3.8039910700351083,-0.3814797019021139,-329.09589417290783,225.5557157730184,405.16981092635467
1737548609.3026261,2.344877407779018,-8.812004194625512,0.45359230973992304,223.35943977964746,109.38227099359858,268.46172750697485
1737548609.4030776,6.610325702966094,3.0694699347365617,-8.047249307188391,135.75937866735057,-419.12059972236926,275.39828322126016
1737548609.5034578,-4.3821580550169426,-0.025703901922025096,3.111901851179635,-407.9664618489779,251.762470691953,310.9022483698732
1737548609.6036754,-7.124046223096611,1.7930351373963092,3.216973204274943,126.47221895339976,-335.18225528469907,-440.2584464673266
1737548609.7038915,9.826352778165838,-1.2761047599536202,-4.43549581036907,-79.36364617582626,-188.9069845396778,194.17725839757725
1737548609.8043604,3.6739657974943825,0.6096732805043992,-1.8513499466305525,464.0823704503448,350.7923908002507,-437.89275130173024
1737548609.9045944,3.1092280393137415,4.376074057651403,2.2197057987748217,-93.92182623212307,384.4035150910836,187.15668941601598
1737548610.0047767,-4.288867025911678,-4.504947481467658,6.471992293126412,157.6961133032337,-283.2311206975759,74.31060308377414
1737548610.1134222,-9.705442205259898,5.138273920714651,-0.6941076541598683,-122.8329930908364,137.73115397573054,-57.623976781179806
1737548610.2140508,4.232055104535652,2.2591238246064282,4.445744200313257,-351.72344922931643,-283.2675292029807,-338.211447452273
1737548610.3147228,2.9254683861330317,-7.892686685356988,-3.3169382220620447,303.7264915877713,-413.53877801643023,-277.04467842111046
1737548610.415908,-3.33299268244867,-1.6815109208388606,8.351352514027838,-387.95010457075284,-425.29337189358483,-55.26290778977847
1737548610.5169806,-7.273235283792556,4.964929085072683,0.979358251469387,381.68152095218034,294.10050950797745,197.723825947073
1737548610.6181297,8.897933739180232,1.9504863261317311,-8.055085924123963,112.05212800263462,-152.87267779003065,-44.47850921842013
1737548610.7189558,4.312762375788603,4.490753132731166,-8.69027325633894,-237.01484114067307,75.53560891527479,255.07204737968732
1737548610.820101,9.046112504754216,-3.6946806099818446,8.79678869074208,47.796352158979516,390.6373344399558,-341.0021640112698
1737548610.9211202,3.258586363451169,1.6780089867285835,-1.4608606549552494,-370.1830521084411,112.07698079975034,-355.6022328087186
1737548610.1134222,-9.705442205259898,5.138273920714651,-0.6941076541598683,-122.8329930908364,137.73115397573054,-57.623976781179806
1737548610.2140508,4.232055104535652,2.2591238246064282,4.445744200313257,-351.72344922931643,-283.2675292029807,-338.211447452273
1737548610.3147228,2.9254683861330317,-7.892686685356988,-3.3169382220620447,303.7264915877713,-413.53877801643023,-277.04467842111046
1737548610.415908,-3.33299268244867,-1.6815109208388606,8.351352514027838,-387.95010457075284,-425.29337189358483,-55.26290778977847
1737548610.5169806,-7.273235283792556,4.964929085072683,0.979358251469387,381.68152095218034,294.10050950797745,197.723825947073
1737548610.6181297,8.897933739180232,1.9504863261317311,-8.055085924123963,112.05212800263462,-152.87267779003065,-44.47850921842013
1737548610.7189558,4.312762375788603,4.490753132731166,-8.69027325633894,-237.01484114067307,75.53560891527479,255.07204737968732
1737548610.820101,9.046112504754216,-3.6946806099818446,8.79678869074208,47.796352158979516,390.6373344399558,-341.0021640112698
1737548610.9211202,3.258586363451169,1.6780089867285835,-1.4608606549552494,-370.1830521084411,112.07698079975034,-355.6022328087186
1737548611.0224423,4.858971725563077,9.61893964115706,4.915894827065827,471.85209919595445,133.34880449614423,-242.46203313971114
1737548611.1229217,-0.2103311848604843,4.838906621494745,-8.39479206533854,-429.5653559863484,-372.27434453858973,-136.65974859392406
1737548611.2232213,5.192474383366818,-8.130152274406408,-2.0519473498578673,-211.32605552826033,325.4624620832625,-321.8025044051043
1737548611.323483,-4.838567457437866,5.801011343470444,-0.18264292692696138,348.8042518046101,381.6223381800546,-175.8208952976189
1737548611.423724,1.854207568717916,-3.792384495905761,9.867251958104731,-228.8696778946179,210.09135430255242,190.33476040774315
1737548611.5240486,-6.139341784217443,-5.54491097035296,-3.0235960568159115,-96.6820221073603,-483.3066355401481,348.33554317621645
1737548611.6244874,-8.327759099670258,4.365787239554628,8.110383775860555,205.914004836378,241.88891631536103,189.1965062811189
1737548611.7247603,-4.5833500127180855,3.132883456713696,-6.683786983203122,277.34752220214466,94.73012436665704,-331.3443776660813
1737548611.8252566,-7.762880835121133,-4.473961502494806,5.572712915881086,172.01119429556582,361.77267132200734,438.59000564823884
1737548611.925525,8.208037241422268,-1.3916151361951776,3.687006459393638,422.71616833958865,93.20202196947628,-173.93740583244977
1737548612.0257494,6.711834269600772,1.8224006425266346,-0.8286506631434509,-66.12218955436191,384.3727258212932,-248.64833167506407
1737548612.126009,3.2878803404775407,-4.915559005443944,8.099142592140257,194.56666726405342,379.2742008026696,408.65889070255525
1737548612.226318,5.9746895670760765,-6.677074491371595,2.6880967137999647,-334.8783478527282,495.0526824052097,-81.47085833520526
1737548612.3267288,-2.605089486222223,-0.8574317120426791,0.27230579072132066,46.0059405661907,-33.02118490429763,-351.66723648561737
1737548612.426999,4.5984261741604655,-5.8579980774470926,-9.078654774927049,226.63632514209166,-485.7188998799765,-129.43274470667723
1737548612.5274217,-5.484772899513586,7.882805218038676,-1.9470193485905583,-195.80063721125174,-370.36229124142005,-18.254970097255864
1737548612.6278176,-9.882312932834395,5.578155609459854,7.651852779498785,-277.2914671429786,-451.13992902919097,62.72880546388035
1737548612.7282495,-7.035828280351852,-1.7619599860214628,-1.5270106565485246,-482.98357571302154,88.84825529992759,389.28754203359256
1737548612.8287313,-6.190812538974495,6.3064058796960865,4.010581545660557,73.59875071679289,-356.4393000234244,-83.41746145907825
1737548612.9292712,-4.990516860091723,3.2219042689688298,9.943727527379554,-118.86291202853471,-86.78628385583153,45.88665671374531
1737548613.0295026,-5.083660477835073,7.961223284534725,7.552051974156793,-272.0685585362155,-15.024736715888878,462.96663195907183
1737548613.129708,-2.895900020830058,-4.332074375190402,-0.9498344658657505,-67.88394292947095,334.5774732762669,449.9602835823331
1737548613.229932,1.1852501517092744,7.861660993891128,-3.0219511087665367,421.4085942659991,405.0169040441756,-490.86714826725944
1737548613.3301153,-1.7529735516717988,5.6122761380963375,8.899864693814369,-156.8989072319955,102.10282359661255,84.29034319911113
1737548613.4302888,-5.2597234750665205,-6.497046188112938,-5.043441178317012,-109.41818218013219,314.6623095311015,449.94228551266804
1737548613.5304964,9.344242236958717,-7.583475296303009,7.884359443975082,322.54199191478983,-279.94306789530486,199.2167965342286
1737548613.6307123,3.6220292277008745,7.048209380045844,3.0749150267414826,-171.2542355749552,381.3147752279158,-383.6160486203933
1737548613.7309124,1.3125316467672619,-2.702103445186628,-7.658561920229041,392.16443696003,-199.44439730992423,-206.6425856114966
1737548613.831149,-5.8436753454797845,-6.132813863029584,-0.8606026090374801,497.1636122422867,-358.15098781030804,-405.8773921585749
1737548613.9315748,8.273293125748815,-2.072213548064667,-1.2017849006422576,345.758946155824,324.4260591890967,424.2840372661665
1737548614.031746,5.61230001819002,3.240074745823751,0.8097676280763206,34.55564283770741,-75.23744085264838,-188.13163407714637
1737548614.1319256,-3.0559180800391257,-2.67695691423744,-7.078956624369819,472.84701896017043,-76.488941753478,-281.6570130788969
1737548614.232107,-3.50447517848238,3.192591982837518,-3.4248351503650465,195.65499271990916,84.76736496419596,488.05014366748367
1737548614.3322842,9.180016410497881,-7.6857947697891005,1.518457935243216,-176.57223812628354,-328.5048877128445,-234.2309739028243
1737548614.4324644,3.688064263983481,3.9478316057319613,4.454554006309756,42.21903054090137,316.44815858318975,-324.2881449802236
1737548614.5326355,7.515786521184818,5.583763740262434,-0.3682067363618451,397.623594483313,-352.62033312923535,419.16536020501746
1737548614.6328151,0.9390872185322134,-7.72083082881635,6.221267640845063,316.9222053989756,-359.34013276259003,191.19626910827765
1737548614.732984,1.5071563061411908,-0.9622656623406041,-2.7894812135832865,288.9690841855089,147.35684109620263,-51.066928486566155
1737548614.8331573,-0.9416373166604579,-4.800325579015247,-7.28281162401961,85.03100882116257,-181.8521037541766,-453.346573437217
1737548614.9333367,-8.003859368772225,-3.4537610599891533,-7.918412736828193,4.6132121527861045,-112.90781081053592,359.94431885979554
1737548615.0335028,-7.071905336539062,-4.456773724815304,-7.890683267440915,-350.4274923875832,-402.8461567064659,395.4270808714268
1737548615.1336672,-7.013869461522955,-5.538219261200002,2.2446449271460374,-158.2027052136026,-198.73628043839653,323.97390148226
1737548615.2338238,-5.675948900298287,2.4354890568643306,-9.659145614189729,365.77010851545117,-111.93639089522753,117.63597577627957
1737548615.3339896,-3.1874957745612686,-4.962601517483797,-1.7493784952151454,-98.78768229043908,233.81476458216594,-49.74633870702337
1737548615.4341786,2.000864868551975,5.741714816564478,7.7672004593939405,219.44315588752113,-286.71076288630616,358.1852436211368
1737548615.5343518,7.145290792714203,-5.801174984423872,-7.598204857228379,378.5178537978726,-237.7426868038247,62.03700052402951
1737548615.6344967,1.9524559550184168,5.121818125652194,9.075676282642608,-192.33629940019637,360.0139129912852,443.3688231051791
1737548615.734647,8.894286588924288,-8.035555675941348,0.5895793046205462,-408.16744451168387,-331.2742415691644,380.9538842048412
1737548615.8347852,4.106012126979618,-8.85682935802251,8.01354068993852,-50.11315268552676,-88.07095711085225,-207.19505678713
1737548615.934935,0.27509613802424226,8.814455965938123,-7.587557380145233,-321.05637210284954,311.934804523921,-107.46078883187204
1737548616.0350745,-7.921384679669212,1.2229350052832721,0.14303185157646503,33.73708765103572,304.89579611233046,-183.89711717867317
1737548616.1352098,0.36390486614999773,-2.658364765173289,-2.7985762770974514,-115.98309686041875,98.7329043338218,252.34994418091298
1737548616.2353575,4.014163942447537,-3.6617720031614587,7.263192153924841,-254.47557041729974,141.45213159400544,-98.19252848129935
1737548616.3355002,6.901548052836247,-7.163987450939651,9.671426237401793,156.63427610140718,-253.90449931063807,72.27812964621126
1737548616.4356267,9.186887906426719,-7.76413588744056,-6.072270723173627,-481.77692451241813,285.8183325794786,168.98541188255672
1737548616.5357604,-0.41329227458944295,-6.9477522172277295,-2.503803457942711,393.6230847837694,-380.42090563243227,-306.2405995483657
1737548616.635894,7.388352962990837,0.9558434523353405,5.272262580171493,-392.38093940626794,463.0074193290653,50.861995197819056
1737548616.736045,4.415525792830984,8.624449481732803,3.269129047061554,-283.3735375008293,-214.9378709166454,-251.88774223169108
1737548616.836196,-6.889626382982222,1.9853318964080735,6.231536951231686,440.2640777117042,126.07366589931041,48.37731811342189
1737548616.9363394,0.552539926644986,2.211769768650667,-3.399670596724061,474.73520397265133,-6.788878345947751,411.3881009880862
1737548617.0364764,-4.983071158725227,-9.3855285041683,7.834134410558921,-307.1480987968854,469.0225720419336,-200.21761704343635
1737548617.1366048,1.8988670294285974,4.79443628784365,2.2154578897883326,193.78961261218183,-362.10101635333933,-254.02249610803617
1737548617.2367566,3.5115491465221105,3.0794591770201407,-0.7267360177788653,365.3962840434501,-365.8856011643521,308.14758205727094
1737548617.3369186,9.745336484120319,-0.10778018630201913,-8.838800739989184,267.0648441881606,23.49421558811423,-385.51935394640856
1737548617.437081,1.8355478282987505,-3.2205218358694516,-3.712750278492094,19.461504462200537,-486.60097877002715,199.40410658608698
1737548617.537218,2.928083578482175,-6.72739140164383,8.067780952921566,212.27032087923135,2.5975725470070756,126.33116579838861
1737548617.6373668,1.5710204553700642,5.05360878556883,0.1950003814315373,-93.24869546585035,-15.343743770559115,52.706826170556496
1737548617.7375321,2.0095726603465547,-0.5600686133853277,0.6830480919136566,373.0851473295269,-467.3614708714744,-245.82705553202567
1737548617.8376775,6.591687829752978,5.936484607199715,9.923239125258114,-17.362562437619886,291.96396038528326,257.75971076765404
1737548617.9378114,-3.8240559968432564,-1.72487285046091,7.136480852245292,396.6226568169858,-60.34754039779233,42.18336432526257
1737548618.0379434,8.232590745582375,-3.1982222412581107,5.1212868377462595,-185.1974222555528,-6.934352613823819,427.23861487803265
1737548618.1380968,9.189470202746485,-4.631862734065129,-9.107206225737448,-219.5838251869382,107.15023582286187,-26.050428676467448
1737548618.2382746,-7.394612276316154,4.496501976345382,-5.759056079122466,-392.5797968332686,-203.023393352447,291.07049146361567
1737548618.3384366,-9.854732692606182,0.4435878780536644,6.116086024714317,128.03388570280902,-5.965716169481823,-279.8897930882258
1737548618.438588,9.259063359842909,-0.8354067531152332,4.3864929951487674,-80.33273993490417,195.82773528280018,365.3073248910198
1737548618.5387352,7.889897948717742,-7.947742359317392,1.4559726571741187,430.7966653140686,-386.6260370974089,-241.82785575304268
1737548618.638874,-6.446078349015201,2.3507565347403556,-9.833812122310505,-245.30396289792046,22.594238209756213,-361.4636326815347
1737548618.7390122,5.742832335729988,4.767827817848458,-1.8264951426452907,-289.7832799389456,341.7719925380611,421.36195862659247
1737548618.8391461,-2.236997301969323,-3.144277600279386,8.225955343243545,46.05078078009615,-101.93831192512914,79.52724695376492
1737548618.939286,-9.083949743473202,-8.983935397101723,6.379152578926593,276.3787849383864,487.7185413482464,-296.10200015342593
1737548619.0394123,-2.642530987412357,-3.1482651160109594,1.5547926732919333,-423.8324074455849,-297.1132360624142,472.33284647971357
1737548619.1395445,0.44852321379059923,6.727756847788399,-1.4478238095274776,-358.84047578096397,-368.67226351370016,-365.2423856710586
1737548619.2396796,3.479079337864606,-7.7773259322103065,-0.22409786003102994,24.10903027565348,-444.88187358953536,-452.3999280902011
1737548619.339824,-3.7149429152531503,-5.0289695469324975,4.569321600236378,-467.4239225952391,-50.41863408976889,-307.5132447994974
1737548619.4399583,6.661562950176272,6.1898883696655815,-1.0133309531726358,115.59345227956396,-94.78974248724569,112.34063510104647
1737548619.5400836,4.535416986694429,2.5258033167503946,-3.5330175415273235,273.3009255229192,38.66920547218888,319.6798588289723
1737548619.64019,5.476861938783731,-2.959498842393198,-2.762121748913298,-112.53862783942117,-72.65036888350761,-68.85550957629425
1737548619.7403233,-3.2530994326849116,-2.1039288625009744,7.541367832140704,125.70387621681084,472.7510376346854,47.81262768708052
1737548619.8404455,0.6640108525170341,-3.4389505038281847,8.387426198976708,-446.62530690567905,259.9997549311713,-80.74994474533048
1737548619.9406083,7.407157009913064,-8.580200551893702,9.014408614698656,-406.0580007265865,-346.89031447859253,-209.73801765915647
1737548620.0408664,4.663746056523522,-2.426005569592318,5.48556764463507,214.4794959937991,-224.67304027688004,-254.81481848990296
1737548610.2140508,4.232055104535652,2.2591238246064282,4.445744200313257,-351.72344922931643,-283.2675292029807,-338.211447452273
1737548610.3147228,2.9254683861330317,-7.892686685356988,-3.3169382220620447,303.7264915877713,-413.53877801643023,-277.04467842111046
1737548610.415908,-3.33299268244867,-1.6815109208388606,8.351352514027838,-387.95010457075284,-425.29337189358483,-55.26290778977847
1737548610.5169806,-7.273235283792556,4.964929085072683,0.979358251469387,381.68152095218034,294.10050950797745,197.723825947073
1737548610.6181297,8.897933739180232,1.9504863261317311,-8.055085924123963,112.05212800263462,-152.87267779003065,-44.47850921842013
1737548610.7189558,4.312762375788603,4.490753132731166,-8.69027325633894,-237.01484114067307,75.53560891527479,255.07204737968732
1737548610.820101,9.046112504754216,-3.6946806099818446,8.79678869074208,47.796352158979516,390.6373344399558,-341.0021640112698
1737548610.9211202,3.258586363451169,1.6780089867285835,-1.4608606549552494,-370.1830521084411,112.07698079975034,-355.6022328087186
1737548611.0224423,4.858971725563077,9.61893964115706,4.915894827065827,471.85209919595445,133.34880449614423,-242.46203313971114
1737548611.1229217,-0.2103311848604843,4.838906621494745,-8.39479206533854,-429.5653559863484,-372.27434453858973,-136.65974859392406
1737548611.2232213,5.192474383366818,-8.130152274406408,-2.0519473498578673,-211.32605552826033,325.4624620832625,-321.8025044051043
1737548611.323483,-4.838567457437866,5.801011343470444,-0.18264292692696138,348.8042518046101,381.6223381800546,-175.8208952976189
1737548611.423724,1.854207568717916,-3.792384495905761,9.867251958104731,-228.8696778946179,210.09135430255242,190.33476040774315
1737548611.5240486,-6.139341784217443,-5.54491097035296,-3.0235960568159115,-96.6820221073603,-483.3066355401481,348.33554317621645
1737548611.6244874,-8.327759099670258,4.365787239554628,8.110383775860555,205.914004836378,241.88891631536103,189.1965062811189
1737548611.7247603,-4.5833500127180855,3.132883456713696,-6.683786983203122,277.34752220214466,94.73012436665704,-331.3443776660813
1737548611.8252566,-7.762880835121133,-4.473961502494806,5.572712915881086,172.01119429556582,361.77267132200734,438.59000564823884
1737548611.925525,8.208037241422268,-1.3916151361951776,3.687006459393638,422.71616833958865,93.20202196947628,-173.93740583244977
1737548612.0257494,6.711834269600772,1.8224006425266346,-0.8286506631434509,-66.12218955436191,384.3727258212932,-248.64833167506407
1737548612.126009,3.2878803404775407,-4.915559005443944,8.099142592140257,194.56666726405342,379.2742008026696,408.65889070255525
1737548612.226318,5.9746895670760765,-6.677074491371595,2.6880967137999647,-334.8783478527282,495.0526824052097,-81.47085833520526
1737548612.3267288,-2.605089486222223,-0.8574317120426791,0.27230579072132066,46.0059405661907,-33.02118490429763,-351.66723648561737
1737548612.426999,4.5984261741604655,-5.8579980774470926,-9.078654774927049,226.63632514209166,-485.7188998799765,-129.43274470667723
1737548612.5274217,-5.484772899513586,7.882805218038676,-1.9470193485905583,-195.80063721125174,-370.36229124142005,-18.254970097255864
1737548612.6278176,-9.882312932834395,5.578155609459854,7.651852779498785,-277.2914671429786,-451.13992902919097,62.72880546388035
1737548612.7282495,-7.035828280351852,-1.7619599860214628,-1.5270106565485246,-482.98357571302154,88.84825529992759,389.28754203359256
1737548612.8287313,-6.190812538974495,6.3064058796960865,4.010581545660557,73.59875071679289,-356.4393000234244,-83.41746145907825
1737548612.9292712,-4.990516860091723,3.2219042689688298,9.943727527379554,-118.86291202853471,-86.78628385583153,45.88665671374531
1737548613.0295026,-5.083660477835073,7.961223284534725,7.552051974156793,-272.0685585362155,-15.024736715888878,462.96663195907183
1737548613.129708,-2.895900020830058,-4.332074375190402,-0.9498344658657505,-67.88394292947095,334.5774732762669,449.9602835823331
1737548613.229932,1.1852501517092744,7.861660993891128,-3.0219511087665367,421.4085942659991,405.0169040441756,-490.86714826725944
1737548613.3301153,-1.7529735516717988,5.6122761380963375,8.899864693814369,-156.8989072319955,102.10282359661255,84.29034319911113
1737548613.4302888,-5.2597234750665205,-6.497046188112938,-5.043441178317012,-109.41818218013219,314.6623095311015,449.94228551266804
1737548613.5304964,9.344242236958717,-7.583475296303009,7.884359443975082,322.54199191478983,-279.94306789530486,199.2167965342286
1737548613.6307123,3.6220292277008745,7.048209380045844,3.0749150267414826,-171.2542355749552,381.3147752279158,-383.6160486203933
1737548613.7309124,1.3125316467672619,-2.702103445186628,-7.658561920229041,392.16443696003,-199.44439730992423,-206.6425856114966
1737548613.831149,-5.8436753454797845,-6.132813863029584,-0.8606026090374801,497.1636122422867,-358.15098781030804,-405.8773921585749
1737548613.9315748,8.273293125748815,-2.072213548064667,-1.2017849006422576,345.758946155824,324.4260591890967,424.2840372661665
1737548614.031746,5.61230001819002,3.240074745823751,0.8097676280763206,34.55564283770741,-75.23744085264838,-188.13163407714637
1737548614.1319256,-3.0559180800391257,-2.67695691423744,-7.078956624369819,472.84701896017043,-76.488941753478,-281.6570130788969
1737548614.232107,-3.50447517848238,3.192591982837518,-3.4248351503650465,195.65499271990916,84.76736496419596,488.05014366748367
1737548614.3322842,9.180016410497881,-7.6857947697891005,1.518457935243216,-176.57223812628354,-328.5048877128445,-234.2309739028243
1737548614.4324644,3.688064263983481,3.9478316057319613,4.454554006309756,42.21903054090137,316.44815858318975,-324.2881449802236
1737548614.5326355,7.515786521184818,5.583763740262434,-0.3682067363618451,397.623594483313,-352.62033312923535,419.16536020501746
1737548614.6328151,0.9390872185322134,-7.72083082881635,6.221267640845063,316.9222053989756,-359.34013276259003,191.19626910827765
1737548614.732984,1.5071563061411908,-0.9622656623406041,-2.7894812135832865,288.9690841855089,147.35684109620263,-51.066928486566155
1737548614.8331573,-0.9416373166604579,-4.800325579015247,-7.28281162401961,85.03100882116257,-181.8521037541766,-453.346573437217
1737548614.9333367,-8.003859368772225,-3.4537610599891533,-7.918412736828193,4.6132121527861045,-112.90781081053592,359.94431885979554
1737548615.0335028,-7.071905336539062,-4.456773724815304,-7.890683267440915,-350.4274923875832,-402.8461567064659,395.4270808714268
1737548615.1336672,-7.013869461522955,-5.538219261200002,2.2446449271460374,-158.2027052136026,-198.73628043839653,323.97390148226
1737548615.2338238,-5.675948900298287,2.4354890568643306,-9.659145614189729,365.77010851545117,-111.93639089522753,117.63597577627957
1737548615.3339896,-3.1874957745612686,-4.962601517483797,-1.7493784952151454,-98.78768229043908,233.81476458216594,-49.74633870702337
1737548615.4341786,2.000864868551975,5.741714816564478,7.7672004593939405,219.44315588752113,-286.71076288630616,358.1852436211368
1737548615.5343518,7.145290792714203,-5.801174984423872,-7.598204857228379,378.5178537978726,-237.7426868038247,62.03700052402951
1737548615.6344967,1.9524559550184168,5.121818125652194,9.075676282642608,-192.33629940019637,360.0139129912852,443.3688231051791
1737548615.734647,8.894286588924288,-8.035555675941348,0.5895793046205462,-408.16744451168387,-331.2742415691644,380.9538842048412
1737548615.8347852,4.106012126979618,-8.85682935802251,8.01354068993852,-50.11315268552676,-88.07095711085225,-207.19505678713
1737548615.934935,0.27509613802424226,8.814455965938123,-7.587557380145233,-321.05637210284954,311.934804523921,-107.46078883187204
1737548616.0350745,-7.921384679669212,1.2229350052832721,0.14303185157646503,33.73708765103572,304.89579611233046,-183.89711717867317
1737548616.1352098,0.36390486614999773,-2.658364765173289,-2.7985762770974514,-115.98309686041875,98.7329043338218,252.34994418091298
1737548616.2353575,4.014163942447537,-3.6617720031614587,7.263192153924841,-254.47557041729974,141.45213159400544,-98.19252848129935
1737548616.3355002,6.901548052836247,-7.163987450939651,9.671426237401793,156.63427610140718,-253.90449931063807,72.27812964621126
1737548616.4356267,9.186887906426719,-7.76413588744056,-6.072270723173627,-481.77692451241813,285.8183325794786,168.98541188255672
1737548616.5357604,-0.41329227458944295,-6.9477522172277295,-2.503803457942711,393.6230847837694,-380.42090563243227,-306.2405995483657
1737548616.635894,7.388352962990837,0.9558434523353405,5.272262580171493,-392.38093940626794,463.0074193290653,50.861995197819056
1737548616.736045,4.415525792830984,8.624449481732803,3.269129047061554,-283.3735375008293,-214.9378709166454,-251.88774223169108
1737548616.836196,-6.889626382982222,1.9853318964080735,6.231536951231686,440.2640777117042,126.07366589931041,48.37731811342189
1737548616.9363394,0.552539926644986,2.211769768650667,-3.399670596724061,474.73520397265133,-6.788878345947751,411.3881009880862
1737548617.0364764,-4.983071158725227,-9.3855285041683,7.834134410558921,-307.1480987968854,469.0225720419336,-200.21761704343635
1737548617.1366048,1.8988670294285974,4.79443628784365,2.2154578897883326,193.78961261218183,-362.10101635333933,-254.02249610803617
1737548617.2367566,3.5115491465221105,3.0794591770201407,-0.7267360177788653,365.3962840434501,-365.8856011643521,308.14758205727094
1737548617.3369186,9.745336484120319,-0.10778018630201913,-8.838800739989184,267.0648441881606,23.49421558811423,-385.51935394640856
1737548617.437081,1.8355478282987505,-3.2205218358694516,-3.712750278492094,19.461504462200537,-486.60097877002715,199.40410658608698
1737548617.537218,2.928083578482175,-6.72739140164383,8.067780952921566,212.27032087923135,2.5975725470070756,126.33116579838861
1737548617.6373668,1.5710204553700642,5.05360878556883,0.1950003814315373,-93.24869546585035,-15.343743770559115,52.706826170556496
1737548617.7375321,2.0095726603465547,-0.5600686133853277,0.6830480919136566,373.0851473295269,-467.3614708714744,-245.82705553202567
1737548617.8376775,6.591687829752978,5.936484607199715,9.923239125258114,-17.362562437619886,291.96396038528326,257.75971076765404
1737548617.9378114,-3.8240559968432564,-1.72487285046091,7.136480852245292,396.6226568169858,-60.34754039779233,42.18336432526257
1737548618.0379434,8.232590745582375,-3.1982222412581107,5.1212868377462595,-185.1974222555528,-6.934352613823819,427.23861487803265
1737548618.1380968,9.189470202746485,-4.631862734065129,-9.107206225737448,-219.5838251869382,107.15023582286187,-26.050428676467448
1737548618.2382746,-7.394612276316154,4.496501976345382,-5.759056079122466,-392.5797968332686,-203.023393352447,291.07049146361567
1737548618.3384366,-9.854732692606182,0.4435878780536644,6.116086024714317,128.03388570280902,-5.965716169481823,-279.8897930882258
1737548618.438588,9.259063359842909,-0.8354067531152332,4.3864929951487674,-80.33273993490417,195.82773528280018,365.3073248910198
1737548618.5387352,7.889897948717742,-7.947742359317392,1.4559726571741187,430.7966653140686,-386.6260370974089,-241.82785575304268
1737548618.638874,-6.446078349015201,2.3507565347403556,-9.833812122310505,-245.30396289792046,22.594238209756213,-361.4636326815347
1737548618.7390122,5.742832335729988,4.767827817848458,-1.8264951426452907,-289.7832799389456,341.7719925380611,421.36195862659247
1737548618.8391461,-2.236997301969323,-3.144277600279386,8.225955343243545,46.05078078009615,-101.93831192512914,79.52724695376492
1737548618.939286,-9.083949743473202,-8.983935397101723,6.379152578926593,276.3787849383864,487.7185413482464,-296.10200015342593
1737548619.0394123,-2.642530987412357,-3.1482651160109594,1.5547926732919333,-423.8324074455849,-297.1132360624142,472.33284647971357
1737548619.1395445,0.44852321379059923,6.727756847788399,-1.4478238095274776,-358.84047578096397,-368.67226351370016,-365.2423856710586
1737548619.2396796,3.479079337864606,-7.7773259322103065,-0.22409786003102994,24.10903027565348,-444.88187358953536,-452.3999280902011
1737548619.339824,-3.7149429152531503,-5.0289695469324975,4.569321600236378,-467.4239225952391,-50.41863408976889,-307.5132447994974
1737548619.4399583,6.661562950176272,6.1898883696655815,-1.0133309531726358,115.59345227956396,-94.78974248724569,112.34063510104647
1737548619.5400836,4.535416986694429,2.5258033167503946,-3.5330175415273235,273.3009255229192,38.66920547218888,319.6798588289723
1737548619.64019,5.476861938783731,-2.959498842393198,-2.762121748913298,-112.53862783942117,-72.65036888350761,-68.85550957629425
1737548619.7403233,-3.2530994326849116,-2.1039288625009744,7.541367832140704,125.70387621681084,472.7510376346854,47.81262768708052
1737548619.8404455,0.6640108525170341,-3.4389505038281847,8.387426198976708,-446.62530690567905,259.9997549311713,-80.74994474533048
1737548619.9406083,7.407157009913064,-8.580200551893702,9.014408614698656,-406.0580007265865,-346.89031447859253,-209.73801765915647
1737548620.0408664,4.663746056523522,-2.426005569592318,5.48556764463507,214.4794959937991,-224.67304027688004,-254.81481848990296
1737548620.1424274,6.28882672055402,-2.366221738836254,-8.489941073423635,-344.42695722238216,106.50923721436448,294.75312510411754
1737548610.3147228,2.9254683861330317,-7.892686685356988,-3.3169382220620447,303.7264915877713,-413.53877801643023,-277.04467842111046
1737548610.415908,-3.33299268244867,-1.6815109208388606,8.351352514027838,-387.95010457075284,-425.29337189358483,-55.26290778977847
1737548610.5169806,-7.273235283792556,4.964929085072683,0.979358251469387,381.68152095218034,294.10050950797745,197.723825947073
1737548610.6181297,8.897933739180232,1.9504863261317311,-8.055085924123963,112.05212800263462,-152.87267779003065,-44.47850921842013
1737548610.7189558,4.312762375788603,4.490753132731166,-8.69027325633894,-237.01484114067307,75.53560891527479,255.07204737968732
1737548610.820101,9.046112504754216,-3.6946806099818446,8.79678869074208,47.796352158979516,390.6373344399558,-341.0021640112698
1737548610.9211202,3.258586363451169,1.6780089867285835,-1.4608606549552494,-370.1830521084411,112.07698079975034,-355.6022328087186
1737548611.0224423,4.858971725563077,9.61893964115706,4.915894827065827,471.85209919595445,133.34880449614423,-242.46203313971114
1737548611.1229217,-0.2103311848604843,4.838906621494745,-8.39479206533854,-429.5653559863484,-372.27434453858973,-136.65974859392406
1737548611.2232213,5.192474383366818,-8.130152274406408,-2.0519473498578673,-211.32605552826033,325.4624620832625,-321.8025044051043
1737548611.323483,-4.838567457437866,5.801011343470444,-0.18264292692696138,348.8042518046101,381.6223381800546,-175.8208952976189
1737548611.423724,1.854207568717916,-3.792384495905761,9.867251958104731,-228.8696778946179,210.09135430255242,190.33476040774315
1737548611.5240486,-6.139341784217443,-5.54491097035296,-3.0235960568159115,-96.6820221073603,-483.3066355401481,348.33554317621645
1737548611.6244874,-8.327759099670258,4.365787239554628,8.110383775860555,205.914004836378,241.88891631536103,189.1965062811189
1737548611.7247603,-4.5833500127180855,3.132883456713696,-6.683786983203122,277.34752220214466,94.73012436665704,-331.3443776660813
1737548611.8252566,-7.762880835121133,-4.473961502494806,5.572712915881086,172.01119429556582,361.77267132200734,438.59000564823884
1737548611.925525,8.208037241422268,-1.3916151361951776,3.687006459393638,422.71616833958865,93.20202196947628,-173.93740583244977
1737548612.0257494,6.711834269600772,1.8224006425266346,-0.8286506631434509,-66.12218955436191,384.3727258212932,-248.64833167506407
1737548612.126009,3.2878803404775407,-4.915559005443944,8.099142592140257,194.56666726405342,379.2742008026696,408.65889070255525
1737548612.226318,5.9746895670760765,-6.677074491371595,2.6880967137999647,-334.8783478527282,495.0526824052097,-81.47085833520526
1737548612.3267288,-2.605089486222223,-0.8574317120426791,0.27230579072132066,46.0059405661907,-33.02118490429763,-351.66723648561737
1737548612.426999,4.5984261741604655,-5.8579980774470926,-9.078654774927049,226.63632514209166,-485.7188998799765,-129.43274470667723
1737548612.5274217,-5.484772899513586,7.882805218038676,-1.9470193485905583,-195.80063721125174,-370.36229124142005,-18.254970097255864
1737548612.6278176,-9.882312932834395,5.578155609459854,7.651852779498785,-277.2914671429786,-451.13992902919097,62.72880546388035
1737548612.7282495,-7.035828280351852,-1.7619599860214628,-1.5270106565485246,-482.98357571302154,88.84825529992759,389.28754203359256
1737548612.8287313,-6.190812538974495,6.3064058796960865,4.010581545660557,73.59875071679289,-356.4393000234244,-83.41746145907825
1737548612.9292712,-4.990516860091723,3.2219042689688298,9.943727527379554,-118.86291202853471,-86.78628385583153,45.88665671374531
1737548613.0295026,-5.083660477835073,7.961223284534725,7.552051974156793,-272.0685585362155,-15.024736715888878,462.96663195907183
1737548613.129708,-2.895900020830058,-4.332074375190402,-0.9498344658657505,-67.88394292947095,334.5774732762669,449.9602835823331
1737548613.229932,1.1852501517092744,7.861660993891128,-3.0219511087665367,421.4085942659991,405.0169040441756,-490.86714826725944
1737548613.3301153,-1.7529735516717988,5.6122761380963375,8.899864693814369,-156.8989072319955,102.10282359661255,84.29034319911113
1737548613.4302888,-5.2597234750665205,-6.497046188112938,-5.043441178317012,-109.41818218013219,314.6623095311015,449.94228551266804
1737548613.5304964,9.344242236958717,-7.583475296303009,7.884359443975082,322.54199191478983,-279.94306789530486,199.2167965342286
1737548613.6307123,3.6220292277008745,7.048209380045844,3.0749150267414826,-171.2542355749552,381.3147752279158,-383.6160486203933
1737548613.7309124,1.3125316467672619,-2.702103445186628,-7.658561920229041,392.16443696003,-199.44439730992423,-206.6425856114966
1737548613.831149,-5.8436753454797845,-6.132813863029584,-0.8606026090374801,497.1636122422867,-358.15098781030804,-405.8773921585749
1737548613.9315748,8.273293125748815,-2.072213548064667,-1.2017849006422576,345.758946155824,324.4260591890967,424.2840372661665
1737548614.031746,5.61230001819002,3.240074745823751,0.8097676280763206,34.55564283770741,-75.23744085264838,-188.13163407714637
1737548614.1319256,-3.0559180800391257,-2.67695691423744,-7.078956624369819,472.84701896017043,-76.488941753478,-281.6570130788969
1737548614.232107,-3.50447517848238,3.192591982837518,-3.4248351503650465,195.65499271990916,84.76736496419596,488.05014366748367
1737548614.3322842,9.180016410497881,-7.6857947697891005,1.518457935243216,-176.57223812628354,-328.5048877128445,-234.2309739028243
1737548614.4324644,3.688064263983481,3.9478316057319613,4.454554006309756,42.21903054090137,316.44815858318975,-324.2881449802236
1737548614.5326355,7.515786521184818,5.583763740262434,-0.3682067363618451,397.623594483313,-352.62033312923535,419.16536020501746
1737548614.6328151,0.9390872185322134,-7.72083082881635,6.221267640845063,316.9222053989756,-359.34013276259003,191.19626910827765
1737548614.732984,1.5071563061411908,-0.9622656623406041,-2.7894812135832865,288.9690841855089,147.35684109620263,-51.066928486566155
1737548614.8331573,-0.9416373166604579,-4.800325579015247,-7.28281162401961,85.03100882116257,-181.8521037541766,-453.346573437217
1737548614.9333367,-8.003859368772225,-3.4537610599891533,-7.918412736828193,4.6132121527861045,-112.90781081053592,359.94431885979554
1737548615.0335028,-7.071905336539062,-4.456773724815304,-7.890683267440915,-350.4274923875832,-402.8461567064659,395.4270808714268
1737548615.1336672,-7.013869461522955,-5.538219261200002,2.2446449271460374,-158.2027052136026,-198.73628043839653,323.97390148226
1737548615.2338238,-5.675948900298287,2.4354890568643306,-9.659145614189729,365.77010851545117,-111.93639089522753,117.63597577627957
1737548615.3339896,-3.1874957745612686,-4.962601517483797,-1.7493784952151454,-98.78768229043908,233.81476458216594,-49.74633870702337
1737548615.4341786,2.000864868551975,5.741714816564478,7.7672004593939405,219.44315588752113,-286.71076288630616,358.1852436211368
1737548615.5343518,7.145290792714203,-5.801174984423872,-7.598204857228379,378.5178537978726,-237.7426868038247,62.03700052402951
1737548615.6344967,1.9524559550184168,5.121818125652194,9.075676282642608,-192.33629940019637,360.0139129912852,443.3688231051791
1737548615.734647,8.894286588924288,-8.035555675941348,0.5895793046205462,-408.16744451168387,-331.2742415691644,380.9538842048412
1737548615.8347852,4.106012126979618,-8.85682935802251,8.01354068993852,-50.11315268552676,-88.07095711085225,-207.19505678713
1737548615.934935,0.27509613802424226,8.814455965938123,-7.587557380145233,-321.05637210284954,311.934804523921,-107.46078883187204
1737548616.0350745,-7.921384679669212,1.2229350052832721,0.14303185157646503,33.73708765103572,304.89579611233046,-183.89711717867317
1737548616.1352098,0.36390486614999773,-2.658364765173289,-2.7985762770974514,-115.98309686041875,98.7329043338218,252.34994418091298
1737548616.2353575,4.014163942447537,-3.6617720031614587,7.263192153924841,-254.47557041729974,141.45213159400544,-98.19252848129935
1737548616.3355002,6.901548052836247,-7.163987450939651,9.671426237401793,156.63427610140718,-253.90449931063807,72.27812964621126
1737548616.4356267,9.186887906426719,-7.76413588744056,-6.072270723173627,-481.77692451241813,285.8183325794786,168.98541188255672
1737548616.5357604,-0.41329227458944295,-6.9477522172277295,-2.503803457942711,393.6230847837694,-380.42090563243227,-306.2405995483657
1737548616.635894,7.388352962990837,0.9558434523353405,5.272262580171493,-392.38093940626794,463.0074193290653,50.861995197819056
1737548616.736045,4.415525792830984,8.624449481732803,3.269129047061554,-283.3735375008293,-214.9378709166454,-251.88774223169108
1737548616.836196,-6.889626382982222,1.9853318964080735,6.231536951231686,440.2640777117042,126.07366589931041,48.37731811342189
1737548616.9363394,0.552539926644986,2.211769768650667,-3.399670596724061,474.73520397265133,-6.788878345947751,411.3881009880862
1737548617.0364764,-4.983071158725227,-9.3855285041683,7.834134410558921,-307.1480987968854,469.0225720419336,-200.21761704343635
1737548617.1366048,1.8988670294285974,4.79443628784365,2.2154578897883326,193.78961261218183,-362.10101635333933,-254.02249610803617
1737548617.2367566,3.5115491465221105,3.0794591770201407,-0.7267360177788653,365.3962840434501,-365.8856011643521,308.14758205727094
1737548617.3369186,9.745336484120319,-0.10778018630201913,-8.838800739989184,267.0648441881606,23.49421558811423,-385.51935394640856
1737548617.437081,1.8355478282987505,-3.2205218358694516,-3.712750278492094,19.461504462200537,-486.60097877002715,199.40410658608698
1737548617.537218,2.928083578482175,-6.72739140164383,8.067780952921566,212.27032087923135,2.5975725470070756,126.33116579838861
1737548617.6373668,1.5710204553700642,5.05360878556883,0.1950003814315373,-93.24869546585035,-15.343743770559115,52.706826170556496
1737548617.7375321,2.0095726603465547,-0.5600686133853277,0.6830480919136566,373.0851473295269,-467.3614708714744,-245.82705553202567
1737548617.8376775,6.591687829752978,5.936484607199715,9.923239125258114,-17.362562437619886,291.96396038528326,257.75971076765404
1737548617.9378114,-3.8240559968432564,-1.72487285046091,7.136480852245292,396.6226568169858,-60.34754039779233,42.18336432526257
1737548618.0379434,8.232590745582375,-3.1982222412581107,5.1212868377462595,-185.1974222555528,-6.934352613823819,427.23861487803265
1737548618.1380968,9.189470202746485,-4.631862734065129,-9.107206225737448,-219.5838251869382,107.15023582286187,-26.050428676467448
1737548618.2382746,-7.394612276316154,4.496501976345382,-5.759056079122466,-392.5797968332686,-203.023393352447,291.07049146361567
1737548618.3384366,-9.854732692606182,0.4435878780536644,6.116086024714317,128.03388570280902,-5.965716169481823,-279.8897930882258
1737548618.438588,9.259063359842909,-0.8354067531152332,4.3864929951487674,-80.33273993490417,195.82773528280018,365.3073248910198
1737548618.5387352,7.889897948717742,-7.947742359317392,1.4559726571741187,430.7966653140686,-386.6260370974089,-241.82785575304268
1737548618.638874,-6.446078349015201,2.3507565347403556,-9.833812122310505,-245.30396289792046,22.594238209756213,-361.4636326815347
1737548618.7390122,5.742832335729988,4.767827817848458,-1.8264951426452907,-289.7832799389456,341.7719925380611,421.36195862659247
1737548618.8391461,-2.236997301969323,-3.144277600279386,8.225955343243545,46.05078078009615,-101.93831192512914,79.52724695376492
1737548618.939286,-9.083949743473202,-8.983935397101723,6.379152578926593,276.3787849383864,487.7185413482464,-296.10200015342593
1737548619.0394123,-2.642530987412357,-3.1482651160109594,1.5547926732919333,-423.8324074455849,-297.1132360624142,472.33284647971357
1737548619.1395445,0.44852321379059923,6.727756847788399,-1.4478238095274776,-358.84047578096397,-368.67226351370016,-365.2423856710586
1737548619.2396796,3.479079337864606,-7.7773259322103065,-0.22409786003102994,24.10903027565348,-444.88187358953536,-452.3999280902011
1737548619.339824,-3.7149429152531503,-5.0289695469324975,4.569321600236378,-467.4239225952391,-50.41863408976889,-307.5132447994974
1737548619.4399583,6.661562950176272,6.1898883696655815,-1.0133309531726358,115.59345227956396,-94.78974248724569,112.34063510104647
1737548619.5400836,4.535416986694429,2.5258033167503946,-3.5330175415273235,273.3009255229192,38.66920547218888,319.6798588289723
1737548619.64019,5.476861938783731,-2.959498842393198,-2.762121748913298,-112.53862783942117,-72.65036888350761,-68.85550957629425
1737548619.7403233,-3.2530994326849116,-2.1039288625009744,7.541367832140704,125.70387621681084,472.7510376346854,47.81262768708052
1737548619.8404455,0.6640108525170341,-3.4389505038281847,8.387426198976708,-446.62530690567905,259.9997549311713,-80.74994474533048
1737548619.9406083,7.407157009913064,-8.580200551893702,9.014408614698656,-406.0580007265865,-346.89031447859253,-209.73801765915647
1737548620.0408664,4.663746056523522,-2.426005569592318,5.48556764463507,214.4794959937991,-224.67304027688004,-254.81481848990296
1737548620.1424274,6.28882672055402,-2.366221738836254,-8.489941073423635,-344.42695722238216,106.50923721436448,294.75312510411754
1737548620.243895,-5.218559748347477,8.904515908581118,-5.555875821524436,-42.10775365149766,-398.37589050576264,-187.9432905268764
1737548610.415908,-3.33299268244867,-1.6815109208388606,8.351352514027838,-387.95010457075284,-425.29337189358483,-55.26290778977847
1737548610.5169806,-7.273235283792556,4.964929085072683,0.979358251469387,381.68152095218034,294.10050950797745,197.723825947073
1737548610.6181297,8.897933739180232,1.9504863261317311,-8.055085924123963,112.05212800263462,-152.87267779003065,-44.47850921842013
1737548610.7189558,4.312762375788603,4.490753132731166,-8.69027325633894,-237.01484114067307,75.53560891527479,255.07204737968732
1737548610.820101,9.046112504754216,-3.6946806099818446,8.79678869074208,47.796352158979516,390.6373344399558,-341.0021640112698
1737548610.9211202,3.258586363451169,1.6780089867285835,-1.4608606549552494,-370.1830521084411,112.07698079975034,-355.6022328087186
1737548611.0224423,4.858971725563077,9.61893964115706,4.915894827065827,471.85209919595445,133.34880449614423,-242.46203313971114
1737548611.1229217,-0.2103311848604843,4.838906621494745,-8.39479206533854,-429.5653559863484,-372.27434453858973,-136.65974859392406
1737548611.2232213,5.192474383366818,-8.130152274406408,-2.0519473498578673,-211.32605552826033,325.4624620832625,-321.8025044051043
1737548611.323483,-4.838567457437866,5.801011343470444,-0.18264292692696138,348.8042518046101,381.6223381800546,-175.8208952976189
1737548611.423724,1.854207568717916,-3.792384495905761,9.867251958104731,-228.8696778946179,210.09135430255242,190.33476040774315
1737548611.5240486,-6.139341784217443,-5.54491097035296,-3.0235960568159115,-96.6820221073603,-483.3066355401481,348.33554317621645
1737548611.6244874,-8.327759099670258,4.365787239554628,8.110383775860555,205.914004836378,241.88891631536103,189.1965062811189
1737548611.7247603,-4.5833500127180855,3.132883456713696,-6.683786983203122,277.34752220214466,94.73012436665704,-331.3443776660813
1737548611.8252566,-7.762880835121133,-4.473961502494806,5.572712915881086,172.01119429556582,361.77267132200734,438.59000564823884
1737548611.925525,8.208037241422268,-1.3916151361951776,3.687006459393638,422.71616833958865,93.20202196947628,-173.93740583244977
1737548612.0257494,6.711834269600772,1.8224006425266346,-0.8286506631434509,-66.12218955436191,384.3727258212932,-248.64833167506407
1737548612.126009,3.2878803404775407,-4.915559005443944,8.099142592140257,194.56666726405342,379.2742008026696,408.65889070255525
1737548612.226318,5.9746895670760765,-6.677074491371595,2.6880967137999647,-334.8783478527282,495.0526824052097,-81.47085833520526
1737548612.3267288,-2.605089486222223,-0.8574317120426791,0.27230579072132066,46.0059405661907,-33.02118490429763,-351.66723648561737
1737548612.426999,4.5984261741604655,-5.8579980774470926,-9.078654774927049,226.63632514209166,-485.7188998799765,-129.43274470667723
1737548612.5274217,-5.484772899513586,7.882805218038676,-1.9470193485905583,-195.80063721125174,-370.36229124142005,-18.254970097255864
1737548612.6278176,-9.882312932834395,5.578155609459854,7.651852779498785,-277.2914671429786,-451.13992902919097,62.72880546388035
1737548612.7282495,-7.035828280351852,-1.7619599860214628,-1.5270106565485246,-482.98357571302154,88.84825529992759,389.28754203359256
1737548612.8287313,-6.190812538974495,6.3064058796960865,4.010581545660557,73.59875071679289,-356.4393000234244,-83.41746145907825
1737548612.9292712,-4.990516860091723,3.2219042689688298,9.943727527379554,-118.86291202853471,-86.78628385583153,45.88665671374531
1737548613.0295026,-5.083660477835073,7.961223284534725,7.552051974156793,-272.0685585362155,-15.024736715888878,462.96663195907183
1737548613.129708,-2.895900020830058,-4.332074375190402,-0.9498344658657505,-67.88394292947095,334.5774732762669,449.9602835823331
1737548613.229932,1.1852501517092744,7.861660993891128,-3.0219511087665367,421.4085942659991,405.0169040441756,-490.86714826725944
1737548613.3301153,-1.7529735516717988,5.6122761380963375,8.899864693814369,-156.8989072319955,102.10282359661255,84.29034319911113
1737548613.4302888,-5.2597234750665205,-6.497046188112938,-5.043441178317012,-109.41818218013219,314.6623095311015,449.94228551266804
1737548613.5304964,9.344242236958717,-7.583475296303009,7.884359443975082,322.54199191478983,-279.94306789530486,199.2167965342286
1737548613.6307123,3.6220292277008745,7.048209380045844,3.0749150267414826,-171.2542355749552,381.3147752279158,-383.6160486203933
1737548613.7309124,1.3125316467672619,-2.702103445186628,-7.658561920229041,392.16443696003,-199.44439730992423,-206.6425856114966
1737548613.831149,-5.8436753454797845,-6.132813863029584,-0.8606026090374801,497.1636122422867,-358.15098781030804,-405.8773921585749
1737548613.9315748,8.273293125748815,-2.072213548064667,-1.2017849006422576,345.758946155824,324.4260591890967,424.2840372661665
1737548614.031746,5.61230001819002,3.240074745823751,0.8097676280763206,34.55564283770741,-75.23744085264838,-188.13163407714637
1737548614.1319256,-3.0559180800391257,-2.67695691423744,-7.078956624369819,472.84701896017043,-76.488941753478,-281.6570130788969
1737548614.232107,-3.50447517848238,3.192591982837518,-3.4248351503650465,195.65499271990916,84.76736496419596,488.05014366748367
1737548614.3322842,9.180016410497881,-7.6857947697891005,1.518457935243216,-176.57223812628354,-328.5048877128445,-234.2309739028243
1737548614.4324644,3.688064263983481,3.9478316057319613,4.454554006309756,42.21903054090137,316.44815858318975,-324.2881449802236
1737548614.5326355,7.515786521184818,5.583763740262434,-0.3682067363618451,397.623594483313,-352.62033312923535,419.16536020501746
1737548614.6328151,0.9390872185322134,-7.72083082881635,6.221267640845063,316.9222053989756,-359.34013276259003,191.19626910827765
1737548614.732984,1.5071563061411908,-0.9622656623406041,-2.7894812135832865,288.9690841855089,147.35684109620263,-51.066928486566155
1737548614.8331573,-0.9416373166604579,-4.800325579015247,-7.28281162401961,85.03100882116257,-181.8521037541766,-453.346573437217
1737548614.9333367,-8.003859368772225,-3.4537610599891533,-7.918412736828193,4.6132121527861045,-112.90781081053592,359.94431885979554
1737548615.0335028,-7.071905336539062,-4.456773724815304,-7.890683267440915,-350.4274923875832,-402.8461567064659,395.4270808714268
1737548615.1336672,-7.013869461522955,-5.538219261200002,2.2446449271460374,-158.2027052136026,-198.73628043839653,323.97390148226
1737548615.2338238,-5.675948900298287,2.4354890568643306,-9.659145614189729,365.77010851545117,-111.93639089522753,117.63597577627957
1737548615.3339896,-3.1874957745612686,-4.962601517483797,-1.7493784952151454,-98.78768229043908,233.81476458216594,-49.74633870702337
1737548615.4341786,2.000864868551975,5.741714816564478,7.7672004593939405,219.44315588752113,-286.71076288630616,358.1852436211368
1737548615.5343518,7.145290792714203,-5.801174984423872,-7.598204857228379,378.5178537978726,-237.7426868038247,62.03700052402951
1737548615.6344967,1.9524559550184168,5.121818125652194,9.075676282642608,-192.33629940019637,360.0139129912852,443.3688231051791
1737548615.734647,8.894286588924288,-8.035555675941348,0.5895793046205462,-408.16744451168387,-331.2742415691644,380.9538842048412
1737548615.8347852,4.106012126979618,-8.85682935802251,8.01354068993852,-50.11315268552676,-88.07095711085225,-207.19505678713
1737548615.934935,0.27509613802424226,8.814455965938123,-7.587557380145233,-321.05637210284954,311.934804523921,-107.46078883187204
1737548616.0350745,-7.921384679669212,1.2229350052832721,0.14303185157646503,33.73708765103572,304.89579611233046,-183.89711717867317
1737548616.1352098,0.36390486614999773,-2.658364765173289,-2.7985762770974514,-115.98309686041875,98.7329043338218,252.34994418091298
1737548616.2353575,4.014163942447537,-3.6617720031614587,7.263192153924841,-254.47557041729974,141.45213159400544,-98.19252848129935
1737548616.3355002,6.901548052836247,-7.163987450939651,9.671426237401793,156.63427610140718,-253.90449931063807,72.27812964621126
1737548616.4356267,9.186887906426719,-7.76413588744056,-6.072270723173627,-481.77692451241813,285.8183325794786,168.98541188255672
1737548616.5357604,-0.41329227458944295,-6.9477522172277295,-2.503803457942711,393.6230847837694,-380.42090563243227,-306.2405995483657
1737548616.635894,7.388352962990837,0.9558434523353405,5.272262580171493,-392.38093940626794,463.0074193290653,50.861995197819056
1737548616.736045,4.415525792830984,8.624449481732803,3.269129047061554,-283.3735375008293,-214.9378709166454,-251.88774223169108
1737548616.836196,-6.889626382982222,1.9853318964080735,6.231536951231686,440.2640777117042,126.07366589931041,48.37731811342189
1737548616.9363394,0.552539926644986,2.211769768650667,-3.399670596724061,474.73520397265133,-6.788878345947751,411.3881009880862
1737548617.0364764,-4.983071158725227,-9.3855285041683,7.834134410558921,-307.1480987968854,469.0225720419336,-200.21761704343635
1737548617.1366048,1.8988670294285974,4.79443628784365,2.2154578897883326,193.78961261218183,-362.10101635333933,-254.02249610803617
1737548617.2367566,3.5115491465221105,3.0794591770201407,-0.7267360177788653,365.3962840434501,-365.8856011643521,308.14758205727094
1737548617.3369186,9.745336484120319,-0.10778018630201913,-8.838800739989184,267.0648441881606,23.49421558811423,-385.51935394640856
1737548617.437081,1.8355478282987505,-3.2205218358694516,-3.712750278492094,19.461504462200537,-486.60097877002715,199.40410658608698
1737548617.537218,2.928083578482175,-6.72739140164383,8.067780952921566,212.27032087923135,2.5975725470070756,126.33116579838861
1737548617.6373668,1.5710204553700642,5.05360878556883,0.1950003814315373,-93.24869546585035,-15.343743770559115,52.706826170556496
1737548617.7375321,2.0095726603465547,-0.5600686133853277,0.6830480919136566,373.0851473295269,-467.3614708714744,-245.82705553202567
1737548617.8376775,6.591687829752978,5.936484607199715,9.923239125258114,-17.362562437619886,291.96396038528326,257.75971076765404
1737548617.9378114,-3.8240559968432564,-1.72487285046091,7.136480852245292,396.6226568169858,-60.34754039779233,42.18336432526257
1737548618.0379434,8.232590745582375,-3.1982222412581107,5.1212868377462595,-185.1974222555528,-6.934352613823819,427.23861487803265
1737548618.1380968,9.189470202746485,-4.631862734065129,-9.107206225737448,-219.5838251869382,107.15023582286187,-26.050428676467448
1737548618.2382746,-7.394612276316154,4.496501976345382,-5.759056079122466,-392.5797968332686,-203.023393352447,291.07049146361567
1737548618.3384366,-9.854732692606182,0.4435878780536644,6.116086024714317,128.03388570280902,-5.965716169481823,-279.8897930882258
1737548618.438588,9.259063359842909,-0.8354067531152332,4.3864929951487674,-80.33273993490417,195.82773528280018,365.3073248910198
1737548618.5387352,7.889897948717742,-7.947742359317392,1.4559726571741187,430.7966653140686,-386.6260370974089,-241.82785575304268
1737548618.638874,-6.446078349015201,2.3507565347403556,-9.833812122310505,-245.30396289792046,22.594238209756213,-361.4636326815347
1737548618.7390122,5.742832335729988,4.767827817848458,-1.8264951426452907,-289.7832799389456,341.7719925380611,421.36195862659247
1737548618.8391461,-2.236997301969323,-3.144277600279386,8.225955343243545,46.05078078009615,-101.93831192512914,79.52724695376492
1737548618.939286,-9.083949743473202,-8.983935397101723,6.379152578926593,276.3787849383864,487.7185413482464,-296.10200015342593
1737548619.0394123,-2.642530987412357,-3.1482651160109594,1.5547926732919333,-423.8324074455849,-297.1132360624142,472.33284647971357
1737548619.1395445,0.44852321379059923,6.727756847788399,-1.4478238095274776,-358.84047578096397,-368.67226351370016,-365.2423856710586
1737548619.2396796,3.479079337864606,-7.7773259322103065,-0.22409786003102994,24.10903027565348,-444.88187358953536,-452.3999280902011
1737548619.339824,-3.7149429152531503,-5.0289695469324975,4.569321600236378,-467.4239225952391,-50.41863408976889,-307.5132447994974
1737548619.4399583,6.661562950176272,6.1898883696655815,-1.0133309531726358,115.59345227956396,-94.78974248724569,112.34063510104647
1737548619.5400836,4.535416986694429,2.5258033167503946,-3.5330175415273235,273.3009255229192,38.66920547218888,319.6798588289723
1737548619.64019,5.476861938783731,-2.959498842393198,-2.762121748913298,-112.53862783942117,-72.65036888350761,-68.85550957629425
1737548619.7403233,-3.2530994326849116,-2.1039288625009744,7.541367832140704,125.70387621681084,472.7510376346854,47.81262768708052
1737548619.8404455,0.6640108525170341,-3.4389505038281847,8.387426198976708,-446.62530690567905,259.9997549311713,-80.74994474533048
1737548619.9406083,7.407157009913064,-8.580200551893702,9.014408614698656,-406.0580007265865,-346.89031447859253,-209.73801765915647
1737548620.0408664,4.663746056523522,-2.426005569592318,5.48556764463507,214.4794959937991,-224.67304027688004,-254.81481848990296
1737548620.1424274,6.28882672055402,-2.366221738836254,-8.489941073423635,-344.42695722238216,106.50923721436448,294.75312510411754
1737548620.243895,-5.218559748347477,8.904515908581118,-5.555875821524436,-42.10775365149766,-398.37589050576264,-187.9432905268764
1737548620.3454387,-5.897923026233487,-1.3716178158605068,9.951653875326713,-319.1919640282207,-420.230827354225,-172.31672668144284
1737548610.5169806,-7.273235283792556,4.964929085072683,0.979358251469387,381.68152095218034,294.10050950797745,197.723825947073
1737548610.6181297,8.897933739180232,1.9504863261317311,-8.055085924123963,112.05212800263462,-152.87267779003065,-44.47850921842013
1737548610.7189558,4.312762375788603,4.490753132731166,-8.69027325633894,-237.01484114067307,75.53560891527479,255.07204737968732
1737548610.820101,9.046112504754216,-3.6946806099818446,8.79678869074208,47.796352158979516,390.6373344399558,-341.0021640112698
1737548610.9211202,3.258586363451169,1.6780089867285835,-1.4608606549552494,-370.1830521084411,112.07698079975034,-355.6022328087186
1737548611.0224423,4.858971725563077,9.61893964115706,4.915894827065827,471.85209919595445,133.34880449614423,-242.46203313971114
1737548611.1229217,-0.2103311848604843,4.838906621494745,-8.39479206533854,-429.5653559863484,-372.27434453858973,-136.65974859392406
1737548611.2232213,5.192474383366818,-8.130152274406408,-2.0519473498578673,-211.32605552826033,325.4624620832625,-321.8025044051043
1737548611.323483,-4.838567457437866,5.801011343470444,-0.18264292692696138,348.8042518046101,381.6223381800546,-175.8208952976189
1737548611.423724,1.854207568717916,-3.792384495905761,9.867251958104731,-228.8696778946179,210.09135430255242,190.33476040774315
1737548611.5240486,-6.139341784217443,-5.54491097035296,-3.0235960568159115,-96.6820221073603,-483.3066355401481,348.33554317621645
1737548611.6244874,-8.327759099670258,4.365787239554628,8.110383775860555,205.914004836378,241.88891631536103,189.1965062811189
1737548611.7247603,-4.5833500127180855,3.132883456713696,-6.683786983203122,277.34752220214466,94.73012436665704,-331.3443776660813
1737548611.8252566,-7.762880835121133,-4.473961502494806,5.572712915881086,172.01119429556582,361.77267132200734,438.59000564823884
1737548611.925525,8.208037241422268,-1.3916151361951776,3.687006459393638,422.71616833958865,93.20202196947628,-173.93740583244977
1737548612.0257494,6.711834269600772,1.8224006425266346,-0.8286506631434509,-66.12218955436191,384.3727258212932,-248.64833167506407
1737548612.126009,3.2878803404775407,-4.915559005443944,8.099142592140257,194.56666726405342,379.2742008026696,408.65889070255525
1737548612.226318,5.9746895670760765,-6.677074491371595,2.6880967137999647,-334.8783478527282,495.0526824052097,-81.47085833520526
1737548612.3267288,-2.605089486222223,-0.8574317120426791,0.27230579072132066,46.0059405661907,-33.02118490429763,-351.66723648561737
1737548612.426999,4.5984261741604655,-5.8579980774470926,-9.078654774927049,226.63632514209166,-485.7188998799765,-129.43274470667723
1737548612.5274217,-5.484772899513586,7.882805218038676,-1.9470193485905583,-195.80063721125174,-370.36229124142005,-18.254970097255864
1737548612.6278176,-9.882312932834395,5.578155609459854,7.651852779498785,-277.2914671429786,-451.13992902919097,62.72880546388035
1737548612.7282495,-7.035828280351852,-1.7619599860214628,-1.5270106565485246,-482.98357571302154,88.84825529992759,389.28754203359256
1737548612.8287313,-6.190812538974495,6.3064058796960865,4.010581545660557,73.59875071679289,-356.4393000234244,-83.41746145907825
1737548612.9292712,-4.990516860091723,3.2219042689688298,9.943727527379554,-118.86291202853471,-86.78628385583153,45.88665671374531
1737548613.0295026,-5.083660477835073,7.961223284534725,7.552051974156793,-272.0685585362155,-15.024736715888878,462.96663195907183
1737548613.129708,-2.895900020830058,-4.332074375190402,-0.9498344658657505,-67.88394292947095,334.5774732762669,449.9602835823331
1737548613.229932,1.1852501517092744,7.861660993891128,-3.0219511087665367,421.4085942659991,405.0169040441756,-490.86714826725944
1737548613.3301153,-1.7529735516717988,5.6122761380963375,8.899864693814369,-156.8989072319955,102.10282359661255,84.29034319911113
1737548613.4302888,-5.2597234750665205,-6.497046188112938,-5.043441178317012,-109.41818218013219,314.6623095311015,449.94228551266804
1737548613.5304964,9.344242236958717,-7.583475296303009,7.884359443975082,322.54199191478983,-279.94306789530486,199.2167965342286
1737548613.6307123,3.6220292277008745,7.048209380045844,3.0749150267414826,-171.2542355749552,381.3147752279158,-383.6160486203933
1737548613.7309124,1.3125316467672619,-2.702103445186628,-7.658561920229041,392.16443696003,-199.44439730992423,-206.6425856114966
1737548613.831149,-5.8436753454797845,-6.132813863029584,-0.8606026090374801,497.1636122422867,-358.15098781030804,-405.8773921585749
1737548613.9315748,8.273293125748815,-2.072213548064667,-1.2017849006422576,345.758946155824,324.4260591890967,424.2840372661665
1737548614.031746,5.61230001819002,3.240074745823751,0.8097676280763206,34.55564283770741,-75.23744085264838,-188.13163407714637
1737548614.1319256,-3.0559180800391257,-2.67695691423744,-7.078956624369819,472.84701896017043,-76.488941753478,-281.6570130788969
1737548614.232107,-3.50447517848238,3.192591982837518,-3.4248351503650465,195.65499271990916,84.76736496419596,488.05014366748367
1737548614.3322842,9.180016410497881,-7.6857947697891005,1.518457935243216,-176.57223812628354,-328.5048877128445,-234.2309739028243
1737548614.4324644,3.688064263983481,3.9478316057319613,4.454554006309756,42.21903054090137,316.44815858318975,-324.2881449802236
1737548614.5326355,7.515786521184818,5.583763740262434,-0.3682067363618451,397.623594483313,-352.62033312923535,419.16536020501746
1737548614.6328151,0.9390872185322134,-7.72083082881635,6.221267640845063,316.9222053989756,-359.34013276259003,191.19626910827765
1737548614.732984,1.5071563061411908,-0.9622656623406041,-2.7894812135832865,288.9690841855089,147.35684109620263,-51.066928486566155
1737548614.8331573,-0.9416373166604579,-4.800325579015247,-7.28281162401961,85.03100882116257,-181.8521037541766,-453.346573437217
1737548614.9333367,-8.003859368772225,-3.4537610599891533,-7.918412736828193,4.6132121527861045,-112.90781081053592,359.94431885979554
1737548615.0335028,-7.071905336539062,-4.456773724815304,-7.890683267440915,-350.4274923875832,-402.8461567064659,395.4270808714268
1737548615.1336672,-7.013869461522955,-5.538219261200002,2.2446449271460374,-158.2027052136026,-198.73628043839653,323.97390148226
1737548615.2338238,-5.675948900298287,2.4354890568643306,-9.659145614189729,365.77010851545117,-111.93639089522753,117.63597577627957
1737548615.3339896,-3.1874957745612686,-4.962601517483797,-1.7493784952151454,-98.78768229043908,233.81476458216594,-49.74633870702337
1737548615.4341786,2.000864868551975,5.741714816564478,7.7672004593939405,219.44315588752113,-286.71076288630616,358.1852436211368
1737548615.5343518,7.145290792714203,-5.801174984423872,-7.598204857228379,378.5178537978726,-237.7426868038247,62.03700052402951
1737548615.6344967,1.9524559550184168,5.121818125652194,9.075676282642608,-192.33629940019637,360.0139129912852,443.3688231051791
1737548615.734647,8.894286588924288,-8.035555675941348,0.5895793046205462,-408.16744451168387,-331.2742415691644,380.9538842048412
1737548615.8347852,4.106012126979618,-8.85682935802251,8.01354068993852,-50.11315268552676,-88.07095711085225,-207.19505678713
1737548615.934935,0.27509613802424226,8.814455965938123,-7.587557380145233,-321.05637210284954,311.934804523921,-107.46078883187204
1737548616.0350745,-7.921384679669212,1.2229350052832721,0.14303185157646503,33.73708765103572,304.89579611233046,-183.89711717867317
1737548616.1352098,0.36390486614999773,-2.658364765173289,-2.7985762770974514,-115.98309686041875,98.7329043338218,252.34994418091298
1737548616.2353575,4.014163942447537,-3.6617720031614587,7.263192153924841,-254.47557041729974,141.45213159400544,-98.19252848129935
1737548616.3355002,6.901548052836247,-7.163987450939651,9.671426237401793,156.63427610140718,-253.90449931063807,72.27812964621126
1737548616.4356267,9.186887906426719,-7.76413588744056,-6.072270723173627,-481.77692451241813,285.8183325794786,168.98541188255672
1737548616.5357604,-0.41329227458944295,-6.9477522172277295,-2.503803457942711,393.6230847837694,-380.42090563243227,-306.2405995483657
1737548616.635894,7.388352962990837,0.9558434523353405,5.272262580171493,-392.38093940626794,463.0074193290653,50.861995197819056
1737548616.736045,4.415525792830984,8.624449481732803,3.269129047061554,-283.3735375008293,-214.9378709166454,-251.88774223169108
1737548616.836196,-6.889626382982222,1.9853318964080735,6.231536951231686,440.2640777117042,126.07366589931041,48.37731811342189
1737548616.9363394,0.552539926644986,2.211769768650667,-3.399670596724061,474.73520397265133,-6.788878345947751,411.3881009880862
1737548617.0364764,-4.983071158725227,-9.3855285041683,7.834134410558921,-307.1480987968854,469.0225720419336,-200.21761704343635
1737548617.1366048,1.8988670294285974,4.79443628784365,2.2154578897883326,193.78961261218183,-362.10101635333933,-254.02249610803617
1737548617.2367566,3.5115491465221105,3.0794591770201407,-0.7267360177788653,365.3962840434501,-365.8856011643521,308.14758205727094
1737548617.3369186,9.745336484120319,-0.10778018630201913,-8.838800739989184,267.0648441881606,23.49421558811423,-385.51935394640856
1737548617.437081,1.8355478282987505,-3.2205218358694516,-3.712750278492094,19.461504462200537,-486.60097877002715,199.40410658608698
1737548617.537218,2.928083578482175,-6.72739140164383,8.067780952921566,212.27032087923135,2.5975725470070756,126.33116579838861
1737548617.6373668,1.5710204553700642,5.05360878556883,0.1950003814315373,-93.24869546585035,-15.343743770559115,52.706826170556496
1737548617.7375321,2.0095726603465547,-0.5600686133853277,0.6830480919136566,373.0851473295269,-467.3614708714744,-245.82705553202567
1737548617.8376775,6.591687829752978,5.936484607199715,9.923239125258114,-17.362562437619886,291.96396038528326,257.75971076765404
1737548617.9378114,-3.8240559968432564,-1.72487285046091,7.136480852245292,396.6226568169858,-60.34754039779233,42.18336432526257
1737548618.0379434,8.232590745582375,-3.1982222412581107,5.1212868377462595,-185.1974222555528,-6.934352613823819,427.23861487803265
1737548618.1380968,9.189470202746485,-4.631862734065129,-9.107206225737448,-219.5838251869382,107.15023582286187,-26.050428676467448
1737548618.2382746,-7.394612276316154,4.496501976345382,-5.759056079122466,-392.5797968332686,-203.023393352447,291.07049146361567
1737548618.3384366,-9.854732692606182,0.4435878780536644,6.116086024714317,128.03388570280902,-5.965716169481823,-279.8897930882258
1737548618.438588,9.259063359842909,-0.8354067531152332,4.3864929951487674,-80.33273993490417,195.82773528280018,365.3073248910198
1737548618.5387352,7.889897948717742,-7.947742359317392,1.4559726571741187,430.7966653140686,-386.6260370974089,-241.82785575304268
1737548618.638874,-6.446078349015201,2.3507565347403556,-9.833812122310505,-245.30396289792046,22.594238209756213,-361.4636326815347
1737548618.7390122,5.742832335729988,4.767827817848458,-1.8264951426452907,-289.7832799389456,341.7719925380611,421.36195862659247
1737548618.8391461,-2.236997301969323,-3.144277600279386,8.225955343243545,46.05078078009615,-101.93831192512914,79.52724695376492
1737548618.939286,-9.083949743473202,-8.983935397101723,6.379152578926593,276.3787849383864,487.7185413482464,-296.10200015342593
1737548619.0394123,-2.642530987412357,-3.1482651160109594,1.5547926732919333,-423.8324074455849,-297.1132360624142,472.33284647971357
1737548619.1395445,0.44852321379059923,6.727756847788399,-1.4478238095274776,-358.84047578096397,-368.67226351370016,-365.2423856710586
1737548619.2396796,3.479079337864606,-7.7773259322103065,-0.22409786003102994,24.10903027565348,-444.88187358953536,-452.3999280902011
1737548619.339824,-3.7149429152531503,-5.0289695469324975,4.569321600236378,-467.4239225952391,-50.41863408976889,-307.5132447994974
1737548619.4399583,6.661562950176272,6.1898883696655815,-1.0133309531726358,115.59345227956396,-94.78974248724569,112.34063510104647
1737548619.5400836,4.535416986694429,2.5258033167503946,-3.5330175415273235,273.3009255229192,38.66920547218888,319.6798588289723
1737548619.64019,5.476861938783731,-2.959498842393198,-2.762121748913298,-112.53862783942117,-72.65036888350761,-68.85550957629425
1737548619.7403233,-3.2530994326849116,-2.1039288625009744,7.541367832140704,125.70387621681084,472.7510376346854,47.81262768708052
1737548619.8404455,0.6640108525170341,-3.4389505038281847,8.387426198976708,-446.62530690567905,259.9997549311713,-80.74994474533048
1737548619.9406083,7.407157009913064,-8.580200551893702,9.014408614698656,-406.0580007265865,-346.89031447859253,-209.73801765915647
1737548620.0408664,4.663746056523522,-2.426005569592318,5.48556764463507,214.4794959937991,-224.67304027688004,-254.81481848990296
1737548620.1424274,6.28882672055402,-2.366221738836254,-8.489941073423635,-344.42695722238216,106.50923721436448,294.75312510411754
1737548620.243895,-5.218559748347477,8.904515908581118,-5.555875821524436,-42.10775365149766,-398.37589050576264,-187.9432905268764
1737548620.3454387,-5.897923026233487,-1.3716178158605068,9.951653875326713,-319.1919640282207,-420.230827354225,-172.31672668144284
1737548620.4468973,-8.286981554961386,-8.488301089117876,1.4274398776175161,304.346164984368,453.9165316282059,251.39763846203618
1737548610.6181297,8.897933739180232,1.9504863261317311,-8.055085924123963,112.05212800263462,-152.87267779003065,-44.47850921842013
1737548610.7189558,4.312762375788603,4.490753132731166,-8.69027325633894,-237.01484114067307,75.53560891527479,255.07204737968732
1737548610.820101,9.046112504754216,-3.6946806099818446,8.79678869074208,47.796352158979516,390.6373344399558,-341.0021640112698
1737548610.9211202,3.258586363451169,1.6780089867285835,-1.4608606549552494,-370.1830521084411,112.07698079975034,-355.6022328087186
1737548611.0224423,4.858971725563077,9.61893964115706,4.915894827065827,471.85209919595445,133.34880449614423,-242.46203313971114
1737548611.1229217,-0.2103311848604843,4.838906621494745,-8.39479206533854,-429.5653559863484,-372.27434453858973,-136.65974859392406
1737548611.2232213,5.192474383366818,-8.130152274406408,-2.0519473498578673,-211.32605552826033,325.4624620832625,-321.8025044051043
1737548611.323483,-4.838567457437866,5.801011343470444,-0.18264292692696138,348.8042518046101,381.6223381800546,-175.8208952976189
1737548611.423724,1.854207568717916,-3.792384495905761,9.867251958104731,-228.8696778946179,210.09135430255242,190.33476040774315
1737548611.5240486,-6.139341784217443,-5.54491097035296,-3.0235960568159115,-96.6820221073603,-483.3066355401481,348.33554317621645
1737548611.6244874,-8.327759099670258,4.365787239554628,8.110383775860555,205.914004836378,241.88891631536103,189.1965062811189
1737548611.7247603,-4.5833500127180855,3.132883456713696,-6.683786983203122,277.34752220214466,94.73012436665704,-331.3443776660813
1737548611.8252566,-7.762880835121133,-4.473961502494806,5.572712915881086,172.01119429556582,361.77267132200734,438.59000564823884
1737548611.925525,8.208037241422268,-1.3916151361951776,3.687006459393638,422.71616833958865,93.20202196947628,-173.93740583244977
1737548612.0257494,6.711834269600772,1.8224006425266346,-0.8286506631434509,-66.12218955436191,384.3727258212932,-248.64833167506407
1737548612.126009,3.2878803404775407,-4.915559005443944,8.099142592140257,194.56666726405342,379.2742008026696,408.65889070255525
1737548612.226318,5.9746895670760765,-6.677074491371595,2.6880967137999647,-334.8783478527282,495.0526824052097,-81.47085833520526
1737548612.3267288,-2.605089486222223,-0.8574317120426791,0.27230579072132066,46.0059405661907,-33.02118490429763,-351.66723648561737
1737548612.426999,4.5984261741604655,-5.8579980774470926,-9.078654774927049,226.63632514209166,-485.7188998799765,-129.43274470667723
1737548612.5274217,-5.484772899513586,7.882805218038676,-1.9470193485905583,-195.80063721125174,-370.36229124142005,-18.254970097255864
1737548612.6278176,-9.882312932834395,5.578155609459854,7.651852779498785,-277.2914671429786,-451.13992902919097,62.72880546388035
1737548612.7282495,-7.035828280351852,-1.7619599860214628,-1.5270106565485246,-482.98357571302154,88.84825529992759,389.28754203359256
1737548612.8287313,-6.190812538974495,6.3064058796960865,4.010581545660557,73.59875071679289,-356.4393000234244,-83.41746145907825
1737548612.9292712,-4.990516860091723,3.2219042689688298,9.943727527379554,-118.86291202853471,-86.78628385583153,45.88665671374531
1737548613.0295026,-5.083660477835073,7.961223284534725,7.552051974156793,-272.0685585362155,-15.024736715888878,462.96663195907183
1737548613.129708,-2.895900020830058,-4.332074375190402,-0.9498344658657505,-67.88394292947095,334.5774732762669,449.9602835823331
1737548613.229932,1.1852501517092744,7.861660993891128,-3.0219511087665367,421.4085942659991,405.0169040441756,-490.86714826725944
1737548613.3301153,-1.7529735516717988,5.6122761380963375,8.899864693814369,-156.8989072319955,102.10282359661255,84.29034319911113
1737548613.4302888,-5.2597234750665205,-6.497046188112938,-5.043441178317012,-109.41818218013219,314.6623095311015,449.94228551266804
1737548613.5304964,9.344242236958717,-7.583475296303009,7.884359443975082,322.54199191478983,-279.94306789530486,199.2167965342286
1737548613.6307123,3.6220292277008745,7.048209380045844,3.0749150267414826,-171.2542355749552,381.3147752279158,-383.6160486203933
1737548613.7309124,1.3125316467672619,-2.702103445186628,-7.658561920229041,392.16443696003,-199.44439730992423,-206.6425856114966
1737548613.831149,-5.8436753454797845,-6.132813863029584,-0.8606026090374801,497.1636122422867,-358.15098781030804,-405.8773921585749
1737548613.9315748,8.273293125748815,-2.072213548064667,-1.2017849006422576,345.758946155824,324.4260591890967,424.2840372661665
1737548614.031746,5.61230001819002,3.240074745823751,0.8097676280763206,34.55564283770741,-75.23744085264838,-188.13163407714637
1737548614.1319256,-3.0559180800391257,-2.67695691423744,-7.078956624369819,472.84701896017043,-76.488941753478,-281.6570130788969
1737548614.232107,-3.50447517848238,3.192591982837518,-3.4248351503650465,195.65499271990916,84.76736496419596,488.05014366748367
1737548614.3322842,9.180016410497881,-7.6857947697891005,1.518457935243216,-176.57223812628354,-328.5048877128445,-234.2309739028243
1737548614.4324644,3.688064263983481,3.9478316057319613,4.454554006309756,42.21903054090137,316.44815858318975,-324.2881449802236
1737548614.5326355,7.515786521184818,5.583763740262434,-0.3682067363618451,397.623594483313,-352.62033312923535,419.16536020501746
1737548614.6328151,0.9390872185322134,-7.72083082881635,6.221267640845063,316.9222053989756,-359.34013276259003,191.19626910827765
1737548614.732984,1.5071563061411908,-0.9622656623406041,-2.7894812135832865,288.9690841855089,147.35684109620263,-51.066928486566155
1737548614.8331573,-0.9416373166604579,-4.800325579015247,-7.28281162401961,85.03100882116257,-181.8521037541766,-453.346573437217
1737548614.9333367,-8.003859368772225,-3.4537610599891533,-7.918412736828193,4.6132121527861045,-112.90781081053592,359.94431885979554
1737548615.0335028,-7.071905336539062,-4.456773724815304,-7.890683267440915,-350.4274923875832,-402.8461567064659,395.4270808714268
1737548615.1336672,-7.013869461522955,-5.538219261200002,2.2446449271460374,-158.2027052136026,-198.73628043839653,323.97390148226
1737548615.2338238,-5.675948900298287,2.4354890568643306,-9.659145614189729,365.77010851545117,-111.93639089522753,117.63597577627957
1737548615.3339896,-3.1874957745612686,-4.962601517483797,-1.7493784952151454,-98.78768229043908,233.81476458216594,-49.74633870702337
1737548615.4341786,2.000864868551975,5.741714816564478,7.7672004593939405,219.44315588752113,-286.71076288630616,358.1852436211368
1737548615.5343518,7.145290792714203,-5.801174984423872,-7.598204857228379,378.5178537978726,-237.7426868038247,62.03700052402951
1737548615.6344967,1.9524559550184168,5.121818125652194,9.075676282642608,-192.33629940019637,360.0139129912852,443.3688231051791
1737548615.734647,8.894286588924288,-8.035555675941348,0.5895793046205462,-408.16744451168387,-331.2742415691644,380.9538842048412
1737548615.8347852,4.106012126979618,-8.85682935802251,8.01354068993852,-50.11315268552676,-88.07095711085225,-207.19505678713
1737548615.934935,0.27509613802424226,8.814455965938123,-7.587557380145233,-321.05637210284954,311.934804523921,-107.46078883187204
1737548616.0350745,-7.921384679669212,1.2229350052832721,0.14303185157646503,33.73708765103572,304.89579611233046,-183.89711717867317
1737548616.1352098,0.36390486614999773,-2.658364765173289,-2.7985762770974514,-115.98309686041875,98.7329043338218,252.34994418091298
1737548616.2353575,4.014163942447537,-3.6617720031614587,7.263192153924841,-254.47557041729974,141.45213159400544,-98.19252848129935
1737548616.3355002,6.901548052836247,-7.163987450939651,9.671426237401793,156.63427610140718,-253.90449931063807,72.27812964621126
1737548616.4356267,9.186887906426719,-7.76413588744056,-6.072270723173627,-481.77692451241813,285.8183325794786,168.98541188255672
1737548616.5357604,-0.41329227458944295,-6.9477522172277295,-2.503803457942711,393.6230847837694,-380.42090563243227,-306.2405995483657
1737548616.635894,7.388352962990837,0.9558434523353405,5.272262580171493,-392.38093940626794,463.0074193290653,50.861995197819056
1737548616.736045,4.415525792830984,8.624449481732803,3.269129047061554,-283.3735375008293,-214.9378709166454,-251.88774223169108
1737548616.836196,-6.889626382982222,1.9853318964080735,6.231536951231686,440.2640777117042,126.07366589931041,48.37731811342189
1737548616.9363394,0.552539926644986,2.211769768650667,-3.399670596724061,474.73520397265133,-6.788878345947751,411.3881009880862
1737548617.0364764,-4.983071158725227,-9.3855285041683,7.834134410558921,-307.1480987968854,469.0225720419336,-200.21761704343635
1737548617.1366048,1.8988670294285974,4.79443628784365,2.2154578897883326,193.78961261218183,-362.10101635333933,-254.02249610803617
1737548617.2367566,3.5115491465221105,3.0794591770201407,-0.7267360177788653,365.3962840434501,-365.8856011643521,308.14758205727094
1737548617.3369186,9.745336484120319,-0.10778018630201913,-8.838800739989184,267.0648441881606,23.49421558811423,-385.51935394640856
1737548617.437081,1.8355478282987505,-3.2205218358694516,-3.712750278492094,19.461504462200537,-486.60097877002715,199.40410658608698
1737548617.537218,2.928083578482175,-6.72739140164383,8.067780952921566,212.27032087923135,2.5975725470070756,126.33116579838861
1737548617.6373668,1.5710204553700642,5.05360878556883,0.1950003814315373,-93.24869546585035,-15.343743770559115,52.706826170556496
1737548617.7375321,2.0095726603465547,-0.5600686133853277,0.6830480919136566,373.0851473295269,-467.3614708714744,-245.82705553202567
1737548617.8376775,6.591687829752978,5.936484607199715,9.923239125258114,-17.362562437619886,291.96396038528326,257.75971076765404
1737548617.9378114,-3.8240559968432564,-1.72487285046091,7.136480852245292,396.6226568169858,-60.34754039779233,42.18336432526257
1737548618.0379434,8.232590745582375,-3.1982222412581107,5.1212868377462595,-185.1974222555528,-6.934352613823819,427.23861487803265
1737548618.1380968,9.189470202746485,-4.631862734065129,-9.107206225737448,-219.5838251869382,107.15023582286187,-26.050428676467448
1737548618.2382746,-7.394612276316154,4.496501976345382,-5.759056079122466,-392.5797968332686,-203.023393352447,291.07049146361567
1737548618.3384366,-9.854732692606182,0.4435878780536644,6.116086024714317,128.03388570280902,-5.965716169481823,-279.8897930882258
1737548618.438588,9.259063359842909,-0.8354067531152332,4.3864929951487674,-80.33273993490417,195.82773528280018,365.3073248910198
1737548618.5387352,7.889897948717742,-7.947742359317392,1.4559726571741187,430.7966653140686,-386.6260370974089,-241.82785575304268
1737548618.638874,-6.446078349015201,2.3507565347403556,-9.833812122310505,-245.30396289792046,22.594238209756213,-361.4636326815347
1737548618.7390122,5.742832335729988,4.767827817848458,-1.8264951426452907,-289.7832799389456,341.7719925380611,421.36195862659247
1737548618.8391461,-2.236997301969323,-3.144277600279386,8.225955343243545,46.05078078009615,-101.93831192512914,79.52724695376492
1737548618.939286,-9.083949743473202,-8.983935397101723,6.379152578926593,276.3787849383864,487.7185413482464,-296.10200015342593
1737548619.0394123,-2.642530987412357,-3.1482651160109594,1.5547926732919333,-423.8324074455849,-297.1132360624142,472.33284647971357
1737548619.1395445,0.44852321379059923,6.727756847788399,-1.4478238095274776,-358.84047578096397,-368.67226351370016,-365.2423856710586
1737548619.2396796,3.479079337864606,-7.7773259322103065,-0.22409786003102994,24.10903027565348,-444.88187358953536,-452.3999280902011
1737548619.339824,-3.7149429152531503,-5.0289695469324975,4.569321600236378,-467.4239225952391,-50.41863408976889,-307.5132447994974
1737548619.4399583,6.661562950176272,6.1898883696655815,-1.0133309531726358,115.59345227956396,-94.78974248724569,112.34063510104647
1737548619.5400836,4.535416986694429,2.5258033167503946,-3.5330175415273235,273.3009255229192,38.66920547218888,319.6798588289723
1737548619.64019,5.476861938783731,-2.959498842393198,-2.762121748913298,-112.53862783942117,-72.65036888350761,-68.85550957629425
1737548619.7403233,-3.2530994326849116,-2.1039288625009744,7.541367832140704,125.70387621681084,472.7510376346854,47.81262768708052
1737548619.8404455,0.6640108525170341,-3.4389505038281847,8.387426198976708,-446.62530690567905,259.9997549311713,-80.74994474533048
1737548619.9406083,7.407157009913064,-8.580200551893702,9.014408614698656,-406.0580007265865,-346.89031447859253,-209.73801765915647
1737548620.0408664,4.663746056523522,-2.426005569592318,5.48556764463507,214.4794959937991,-224.67304027688004,-254.81481848990296
1737548620.1424274,6.28882672055402,-2.366221738836254,-8.489941073423635,-344.42695722238216,106.50923721436448,294.75312510411754
1737548620.243895,-5.218559748347477,8.904515908581118,-5.555875821524436,-42.10775365149766,-398.37589050576264,-187.9432905268764
1737548620.3454387,-5.897923026233487,-1.3716178158605068,9.951653875326713,-319.1919640282207,-420.230827354225,-172.31672668144284
1737548620.4468973,-8.286981554961386,-8.488301089117876,1.4274398776175161,304.346164984368,453.9165316282059,251.39763846203618
1737548620.5483894,-1.2654397755965636,-7.065171982270697,-4.892573526085604,-293.4823897844683,314.69037826683166,-463.8956544791343
1737548610.7189558,4.312762375788603,4.490753132731166,-8.69027325633894,-237.01484114067307,75.53560891527479,255.07204737968732
1737548610.820101,9.046112504754216,-3.6946806099818446,8.79678869074208,47.796352158979516,390.6373344399558,-341.0021640112698
1737548610.9211202,3.258586363451169,1.6780089867285835,-1.4608606549552494,-370.1830521084411,112.07698079975034,-355.6022328087186
1737548611.0224423,4.858971725563077,9.61893964115706,4.915894827065827,471.85209919595445,133.34880449614423,-242.46203313971114
1737548611.1229217,-0.2103311848604843,4.838906621494745,-8.39479206533854,-429.5653559863484,-372.27434453858973,-136.65974859392406
1737548611.2232213,5.192474383366818,-8.130152274406408,-2.0519473498578673,-211.32605552826033,325.4624620832625,-321.8025044051043
1737548611.323483,-4.838567457437866,5.801011343470444,-0.18264292692696138,348.8042518046101,381.6223381800546,-175.8208952976189
1737548611.423724,1.854207568717916,-3.792384495905761,9.867251958104731,-228.8696778946179,210.09135430255242,190.33476040774315
1737548611.5240486,-6.139341784217443,-5.54491097035296,-3.0235960568159115,-96.6820221073603,-483.3066355401481,348.33554317621645
1737548611.6244874,-8.327759099670258,4.365787239554628,8.110383775860555,205.914004836378,241.88891631536103,189.1965062811189
1737548611.7247603,-4.5833500127180855,3.132883456713696,-6.683786983203122,277.34752220214466,94.73012436665704,-331.3443776660813
1737548611.8252566,-7.762880835121133,-4.473961502494806,5.572712915881086,172.01119429556582,361.77267132200734,438.59000564823884
1737548611.925525,8.208037241422268,-1.3916151361951776,3.687006459393638,422.71616833958865,93.20202196947628,-173.93740583244977
1737548612.0257494,6.711834269600772,1.8224006425266346,-0.8286506631434509,-66.12218955436191,384.3727258212932,-248.64833167506407
1737548612.126009,3.2878803404775407,-4.915559005443944,8.099142592140257,194.56666726405342,379.2742008026696,408.65889070255525
1737548612.226318,5.9746895670760765,-6.677074491371595,2.6880967137999647,-334.8783478527282,495.0526824052097,-81.47085833520526
1737548612.3267288,-2.605089486222223,-0.8574317120426791,0.27230579072132066,46.0059405661907,-33.02118490429763,-351.66723648561737
1737548612.426999,4.5984261741604655,-5.8579980774470926,-9.078654774927049,226.63632514209166,-485.7188998799765,-129.43274470667723
1737548612.5274217,-5.484772899513586,7.882805218038676,-1.9470193485905583,-195.80063721125174,-370.36229124142005,-18.254970097255864
1737548612.6278176,-9.882312932834395,5.578155609459854,7.651852779498785,-277.2914671429786,-451.13992902919097,62.72880546388035
1737548612.7282495,-7.035828280351852,-1.7619599860214628,-1.5270106565485246,-482.98357571302154,88.84825529992759,389.28754203359256
1737548612.8287313,-6.190812538974495,6.3064058796960865,4.010581545660557,73.59875071679289,-356.4393000234244,-83.41746145907825
1737548612.9292712,-4.990516860091723,3.2219042689688298,9.943727527379554,-118.86291202853471,-86.78628385583153,45.88665671374531
1737548613.0295026,-5.083660477835073,7.961223284534725,7.552051974156793,-272.0685585362155,-15.024736715888878,462.96663195907183
1737548613.129708,-2.895900020830058,-4.332074375190402,-0.9498344658657505,-67.88394292947095,334.5774732762669,449.9602835823331
1737548613.229932,1.1852501517092744,7.861660993891128,-3.0219511087665367,421.4085942659991,405.0169040441756,-490.86714826725944
1737548613.3301153,-1.7529735516717988,5.6122761380963375,8.899864693814369,-156.8989072319955,102.10282359661255,84.29034319911113
1737548613.4302888,-5.2597234750665205,-6.497046188112938,-5.043441178317012,-109.41818218013219,314.6623095311015,449.94228551266804
1737548613.5304964,9.344242236958717,-7.583475296303009,7.884359443975082,322.54199191478983,-279.94306789530486,199.2167965342286
1737548613.6307123,3.6220292277008745,7.048209380045844,3.0749150267414826,-171.2542355749552,381.3147752279158,-383.6160486203933
1737548613.7309124,1.3125316467672619,-2.702103445186628,-7.658561920229041,392.16443696003,-199.44439730992423,-206.6425856114966
1737548613.831149,-5.8436753454797845,-6.132813863029584,-0.8606026090374801,497.1636122422867,-358.15098781030804,-405.8773921585749
1737548613.9315748,8.273293125748815,-2.072213548064667,-1.2017849006422576,345.758946155824,324.4260591890967,424.2840372661665
1737548614.031746,5.61230001819002,3.240074745823751,0.8097676280763206,34.55564283770741,-75.23744085264838,-188.13163407714637
1737548614.1319256,-3.0559180800391257,-2.67695691423744,-7.078956624369819,472.84701896017043,-76.488941753478,-281.6570130788969
1737548614.232107,-3.50447517848238,3.192591982837518,-3.4248351503650465,195.65499271990916,84.76736496419596,488.05014366748367
1737548614.3322842,9.180016410497881,-7.6857947697891005,1.518457935243216,-176.57223812628354,-328.5048877128445,-234.2309739028243
1737548614.4324644,3.688064263983481,3.9478316057319613,4.454554006309756,42.21903054090137,316.44815858318975,-324.2881449802236
1737548614.5326355,7.515786521184818,5.583763740262434,-0.3682067363618451,397.623594483313,-352.62033312923535,419.16536020501746
1737548614.6328151,0.9390872185322134,-7.72083082881635,6.221267640845063,316.9222053989756,-359.34013276259003,191.19626910827765
1737548614.732984,1.5071563061411908,-0.9622656623406041,-2.7894812135832865,288.9690841855089,147.35684109620263,-51.066928486566155
1737548614.8331573,-0.9416373166604579,-4.800325579015247,-7.28281162401961,85.03100882116257,-181.8521037541766,-453.346573437217
1737548614.9333367,-8.003859368772225,-3.4537610599891533,-7.918412736828193,4.6132121527861045,-112.90781081053592,359.94431885979554
1737548615.0335028,-7.071905336539062,-4.456773724815304,-7.890683267440915,-350.4274923875832,-402.8461567064659,395.4270808714268
1737548615.1336672,-7.013869461522955,-5.538219261200002,2.2446449271460374,-158.2027052136026,-198.73628043839653,323.97390148226
1737548615.2338238,-5.675948900298287,2.4354890568643306,-9.659145614189729,365.77010851545117,-111.93639089522753,117.63597577627957
1737548615.3339896,-3.1874957745612686,-4.962601517483797,-1.7493784952151454,-98.78768229043908,233.81476458216594,-49.74633870702337
1737548615.4341786,2.000864868551975,5.741714816564478,7.7672004593939405,219.44315588752113,-286.71076288630616,358.1852436211368
1737548615.5343518,7.145290792714203,-5.801174984423872,-7.598204857228379,378.5178537978726,-237.7426868038247,62.03700052402951
1737548615.6344967,1.9524559550184168,5.121818125652194,9.075676282642608,-192.33629940019637,360.0139129912852,443.3688231051791
1737548615.734647,8.894286588924288,-8.035555675941348,0.5895793046205462,-408.16744451168387,-331.2742415691644,380.9538842048412
1737548615.8347852,4.106012126979618,-8.85682935802251,8.01354068993852,-50.11315268552676,-88.07095711085225,-207.19505678713
1737548615.934935,0.27509613802424226,8.814455965938123,-7.587557380145233,-321.05637210284954,311.934804523921,-107.46078883187204
1737548616.0350745,-7.921384679669212,1.2229350052832721,0.14303185157646503,33.73708765103572,304.89579611233046,-183.89711717867317
1737548616.1352098,0.36390486614999773,-2.658364765173289,-2.7985762770974514,-115.98309686041875,98.7329043338218,252.34994418091298
1737548616.2353575,4.014163942447537,-3.6617720031614587,7.263192153924841,-254.47557041729974,141.45213159400544,-98.19252848129935
1737548616.3355002,6.901548052836247,-7.163987450939651,9.671426237401793,156.63427610140718,-253.90449931063807,72.27812964621126
1737548616.4356267,9.186887906426719,-7.76413588744056,-6.072270723173627,-481.77692451241813,285.8183325794786,168.98541188255672
1737548616.5357604,-0.41329227458944295,-6.9477522172277295,-2.503803457942711,393.6230847837694,-380.42090563243227,-306.2405995483657
1737548616.635894,7.388352962990837,0.9558434523353405,5.272262580171493,-392.38093940626794,463.0074193290653,50.861995197819056
1737548616.736045,4.415525792830984,8.624449481732803,3.269129047061554,-283.3735375008293,-214.9378709166454,-251.88774223169108
1737548616.836196,-6.889626382982222,1.9853318964080735,6.231536951231686,440.2640777117042,126.07366589931041,48.37731811342189
1737548616.9363394,0.552539926644986,2.211769768650667,-3.399670596724061,474.73520397265133,-6.788878345947751,411.3881009880862
1737548617.0364764,-4.983071158725227,-9.3855285041683,7.834134410558921,-307.1480987968854,469.0225720419336,-200.21761704343635
1737548617.1366048,1.8988670294285974,4.79443628784365,2.2154578897883326,193.78961261218183,-362.10101635333933,-254.02249610803617
1737548617.2367566,3.5115491465221105,3.0794591770201407,-0.7267360177788653,365.3962840434501,-365.8856011643521,308.14758205727094
1737548617.3369186,9.745336484120319,-0.10778018630201913,-8.838800739989184,267.0648441881606,23.49421558811423,-385.51935394640856
1737548617.437081,1.8355478282987505,-3.2205218358694516,-3.712750278492094,19.461504462200537,-486.60097877002715,199.40410658608698
1737548617.537218,2.928083578482175,-6.72739140164383,8.067780952921566,212.27032087923135,2.5975725470070756,126.33116579838861
1737548617.6373668,1.5710204553700642,5.05360878556883,0.1950003814315373,-93.24869546585035,-15.343743770559115,52.706826170556496
1737548617.7375321,2.0095726603465547,-0.5600686133853277,0.6830480919136566,373.0851473295269,-467.3614708714744,-245.82705553202567
1737548617.8376775,6.591687829752978,5.936484607199715,9.923239125258114,-17.362562437619886,291.96396038528326,257.75971076765404
1737548617.9378114,-3.8240559968432564,-1.72487285046091,7.136480852245292,396.6226568169858,-60.34754039779233,42.18336432526257
1737548618.0379434,8.232590745582375,-3.1982222412581107,5.1212868377462595,-185.1974222555528,-6.934352613823819,427.23861487803265
1737548618.1380968,9.189470202746485,-4.631862734065129,-9.107206225737448,-219.5838251869382,107.15023582286187,-26.050428676467448
1737548618.2382746,-7.394612276316154,4.496501976345382,-5.759056079122466,-392.5797968332686,-203.023393352447,291.07049146361567
1737548618.3384366,-9.854732692606182,0.4435878780536644,6.116086024714317,128.03388570280902,-5.965716169481823,-279.8897930882258
